BioWare Version 5.4.9.0 Export
Device:	ISO Leg Press (NEW) 9281CA (SN<616902)	ISO Leg Press (NEW) 9281CA (SN<616902)	ISO Leg Press (NEW) 9281CA (SN<616902)
Samples (#):	1500	1500	1500
Rate (Hz):	100.000000	100.000000	100.000000
Contact period start (sample #):	0	0	0
Contact period end (sample #):	1499	1499	1499
Contact period start time (s):	0.000000	0.000000	0.000000
Contact period end time (s):	14.990000	14.990000	14.990000
First sample time (s):	0.000000	0.000000	0.000000
Normalized force (N):	800.000000	800.000000	800.000000
Normalized length (m):	1.000000	1.000000	1.000000
File Information
Date	Oct 13, 2024  11:24:07
Name	
ID	
Classification	
Description	
abs time (s)	Fx	Fy	Fz
	N	N	N
0.000000	47.704338	1.253869	107.956645
0.010000	47.704000	1.295519	109.853292
0.020000	47.784819	1.496772	109.695498
0.030000	48.106056	1.255777	109.694839
0.040000	47.784986	1.496454	107.798028
0.050000	47.864786	1.295519	109.695825
0.060000	47.865297	1.455758	107.324810
0.070000	47.825142	1.616316	105.112407
0.080000	47.502886	1.335897	105.112405
0.090000	47.623690	1.496136	105.903509
0.100000	48.146721	1.215081	105.112897
0.110000	48.508621	1.093948	104.165477
0.120000	48.750059	0.934026	104.798294
0.130000	47.985592	0.974086	102.901811
0.140000	48.025747	0.933390	101.954059
0.150000	47.904774	1.053570	101.322386
0.160000	47.422575	0.933390	101.795611
0.170000	47.260431	0.652018	103.533643
0.180000	47.099302	0.572216	104.955759
0.190000	47.823444	0.611322	106.061468
0.200000	48.267014	0.410069	107.324810
0.210000	48.468126	0.410069	106.851427
0.220000	48.267523	0.410069	104.954283
0.230000	48.106396	0.409750	104.324419
0.240000	47.543549	0.811621	102.427769
0.250000	47.503225	0.852635	102.902136
0.260000	47.502546	0.691759	101.164920
0.270000	48.065731	0.693031	99.584026
0.280000	48.789873	0.530884	98.160759
0.290000	48.910337	0.450128	96.898240
0.300000	48.467278	0.288935	96.265751
0.310000	48.145361	0.370327	95.951146
0.320000	47.742966	0.046986	99.744769
0.330000	47.822935	0.087682	99.268273
0.340000	47.661806	-0.112617	102.428920
0.350000	47.661469	-0.234387	106.852411
0.360000	48.103170	-0.715741	111.750596
0.370000	48.303944	-1.320137	123.760192
0.380000	47.699245	-1.157671	139.720058
0.390000	44.077511	-0.721465	154.259115
0.400000	40.780071	-0.285896	171.331083
0.410000	34.824270	-0.445181	184.294489
0.420000	29.109397	-0.281125	198.680174
0.430000	25.690474	0.524842	214.012302
0.440000	23.117347	1.009376	232.185883
0.450000	20.784807	2.497632	254.779514
0.460000	19.137616	4.387758	284.643326
0.470000	16.968582	5.635019	317.508846
0.480000	11.177984	8.006500	355.908966
0.490000	5.428560	10.938500	398.418964
0.500000	-2.574791	13.550339	445.199394
0.510000	-12.792593	16.642578	492.298882
0.520000	-23.372297	19.290342	540.822433
0.530000	-32.584537	23.506802	594.399979
0.540000	-39.543694	28.932689	648.764091
0.550000	-44.409546	33.597119	702.022278
0.560000	-48.029922	38.135963	753.859039
0.570000	-53.215990	42.149580	800.006325
0.580000	-58.162151	44.675255	851.212585
0.590000	-62.223549	48.157917	901.785828
0.600000	-64.354975	49.559057	962.629333
0.610000	-72.480316	50.276958	1018.422897
0.620000	-72.194818	50.950977	1049.077835
0.630000	-68.046829	47.942354	1042.601852
0.640000	-65.832888	46.140615	1040.874146
0.650000	-78.193663	49.992402	1052.427872
0.660000	-98.634701	49.919916	1062.084656
0.670000	-121.890991	50.436243	1077.430374
0.680000	-133.884937	45.408728	1116.171783
0.690000	-122.253738	42.188357	1163.911972
0.700000	-98.833778	45.457054	1209.266861
0.710000	-96.423138	46.347911	1238.665939
0.720000	-108.776787	48.200521	1257.957382
0.730000	-133.882729	56.953920	1291.005585
0.740000	-156.975166	61.445391	1306.671173
0.750000	-152.711468	56.423285	1290.400269
0.760000	-130.943626	51.096279	1271.750214
0.770000	-121.130089	58.322315	1269.227783
0.780000	-125.800087	62.940643	1279.982742
0.790000	-140.285492	58.887920	1294.686951
0.800000	-155.054535	57.680403	1304.493790
0.810000	-157.747276	57.910904	1311.300613
0.820000	-139.474590	58.509573	1318.408905
0.830000	-122.939255	61.124275	1312.868881
0.840000	-124.390938	61.650143	1306.392075
0.850000	-140.366142	57.749393	1308.137024
0.860000	-156.905037	55.536243	1307.989899
0.870000	-153.522369	55.096220	1302.302063
0.880000	-137.306240	53.293846	1286.335800
0.890000	-119.079483	51.973778	1281.273605
0.900000	-110.828239	52.221769	1285.215515
0.910000	-116.663242	52.386143	1297.852859
0.920000	-132.839222	54.714703	1305.124695
0.930000	-135.171249	55.360113	1305.596100
0.940000	-121.087898	53.678551	1312.221344
0.950000	-110.903793	53.512274	1321.851379
0.960000	-105.551674	54.675917	1333.219467
0.970000	-115.370811	56.918631	1344.440109
0.980000	-129.256451	59.563215	1353.296738
0.990000	-132.920376	60.809519	1358.196747
1.000000	-120.080631	61.285788	1361.668213
1.010000	-109.295906	59.471966	1370.829819
1.020000	-113.239391	59.670038	1379.999435
1.030000	-125.189957	63.883316	1379.219650
1.040000	-137.186794	65.817955	1367.065369
1.050000	-136.585155	64.216516	1346.851898
1.060000	-129.139378	62.085077	1329.789963
1.070000	-125.516968	59.185820	1322.525299
1.080000	-130.103771	57.374861	1316.049393
1.090000	-138.194908	56.169249	1300.887482
1.100000	-144.754555	57.093170	1283.824326
1.110000	-140.005943	56.006468	1270.390213
1.120000	-130.429089	54.881612	1249.680405
1.130000	-126.566765	52.550825	1216.176651
1.140000	-125.803314	48.174448	1179.036926
1.150000	-121.419151	46.322155	1134.782700
1.160000	-115.829330	44.991593	1082.466980
1.170000	-107.382061	44.934678	1026.505112
1.180000	-95.475895	45.713614	971.797226
1.190000	-81.115875	44.967093	918.820709
1.200000	-69.609045	42.972361	883.542099
1.210000	-57.695576	40.149409	856.166443
1.220000	-45.745008	39.119620	824.372566
1.230000	-35.160211	36.978651	794.007858
1.240000	-27.676662	34.689526	756.699997
1.250000	-21.397755	34.192599	715.131386
1.260000	-14.437748	32.409943	691.571640
1.270000	-7.676137	31.210055	678.286102
1.280000	-8.720839	29.869000	659.164116
1.290000	-11.174350	26.885810	640.355591
1.300000	-10.449697	26.353583	630.705551
1.310000	-6.143806	28.032598	619.948318
1.320000	-0.633273	28.397271	609.037212
1.330000	4.836596	29.444233	599.234291
1.340000	7.975795	29.768527	587.695965
1.350000	7.010384	27.606887	582.323730
1.360000	6.688977	25.686241	579.794262
1.370000	7.092731	24.607806	572.051838
1.380000	6.448388	24.168102	562.099964
1.390000	7.775191	24.093071	549.774460
1.400000	11.234778	22.931972	537.921684
1.410000	13.890422	20.966814	520.697334
1.420000	15.338199	17.914634	503.315514
1.430000	15.420037	14.741957	488.145447
1.440000	17.273435	12.815588	475.657207
1.450000	19.928231	12.659800	468.063572
1.460000	22.099981	13.545887	457.151997
1.470000	25.077881	13.790062	449.243256
1.480000	27.008533	12.625465	441.650438
1.490000	29.865460	11.418264	437.534845
1.500000	34.051058	10.848204	433.735804
1.510000	33.851812	8.557161	432.943724
1.520000	33.769975	8.002684	434.527750
1.530000	28.898861	9.095112	440.061531
1.540000	26.323187	10.622156	449.228188
1.550000	24.191762	11.106053	461.396397
1.560000	21.254355	10.103922	476.253349
1.570000	17.995032	10.064180	495.536564
1.580000	15.821923	11.347684	518.292419
1.590000	15.342274	14.121990	548.476574
1.600000	11.964185	17.301027	579.611595
1.610000	6.372833	21.799176	613.912495
1.620000	-3.360396	25.214120	652.168411
1.630000	-13.335913	28.314310	695.959473
1.640000	-22.144905	30.326841	743.545105
1.650000	-31.959464	31.335651	799.192810
1.660000	-44.309372	33.628284	861.638199
1.670000	-55.494451	37.082970	938.624222
1.680000	-69.374992	38.810631	1025.253296
1.690000	-85.470833	38.097504	1101.611160
1.700000	-98.466442	37.090284	1148.891510
1.710000	-107.519764	36.368254	1178.473785
1.720000	-118.907997	38.416075	1224.175583
1.730000	-144.056477	44.960775	1285.207657
1.740000	-169.327621	50.185406	1333.908966
1.750000	-179.026131	53.199116	1370.435730
1.760000	-165.021217	53.722437	1413.912476
1.770000	-151.941227	57.409851	1455.011841
1.780000	-160.712440	59.450994	1506.388428
1.790000	-187.474068	62.792179	1543.547668
1.800000	-213.953934	68.088030	1554.164154
1.810000	-217.252563	70.529451	1540.598053
1.820000	-206.429214	67.842264	1539.035339
1.830000	-197.700363	65.355375	1558.487854
1.840000	-206.434982	64.145947	1575.097595
1.850000	-218.990929	63.137455	1578.586395
1.860000	-230.860840	64.376764	1582.560089
1.870000	-233.880257	66.622343	1605.179443
1.880000	-231.748322	66.752062	1630.952423
1.890000	-232.512108	65.394798	1633.173981
1.900000	-233.599518	66.317444	1624.015472
1.910000	-240.599686	67.518606	1626.716370
1.920000	-246.958214	67.919523	1640.791412
1.930000	-244.102310	69.114635	1640.466888
1.940000	-236.336487	66.270390	1625.916260
1.950000	-229.256012	63.511030	1622.595978
1.960000	-228.653694	63.429958	1639.354980
1.970000	-232.437073	60.503046	1655.002197
1.980000	-239.359810	58.938803	1652.315918
1.990000	-241.894989	59.335901	1640.307159
2.000000	-232.477562	57.410805	1635.561737
2.010000	-223.984718	55.396366	1638.877014
2.020000	-223.300392	57.321144	1638.559784
2.030000	-226.318100	59.132421	1639.823975
2.040000	-234.246063	61.588160	1645.049347
2.050000	-237.224304	62.880251	1655.492676
2.060000	-235.131851	62.120703	1663.245087
2.070000	-236.943909	61.839329	1661.352844
2.080000	-237.346306	61.322367	1654.247131
2.090000	-239.722733	61.283581	1648.723389
2.100000	-243.345139	59.315559	1641.300781
2.110000	-241.897530	58.269871	1635.450256
2.120000	-241.774864	57.784063	1627.072571
2.130000	-240.607834	57.226725	1629.914032
2.140000	-237.549789	57.515093	1640.659454
2.150000	-235.658791	57.561514	1651.560547
2.160000	-238.475555	58.720068	1659.932037
2.170000	-236.826324	60.480793	1662.769379
2.180000	-234.212029	61.875254	1662.923584
2.190000	-232.763054	61.303288	1664.976868
2.200000	-233.045845	61.414564	1664.979340
2.210000	-236.787354	65.626251	1660.242035
2.220000	-241.416183	69.683107	1657.244415
2.230000	-243.430367	71.574823	1654.719208
2.240000	-242.065788	71.092199	1649.822845
2.250000	-244.119453	72.726702	1642.077759
2.260000	-244.603004	74.150726	1636.065399
2.270000	-241.467888	72.202732	1624.517365
2.280000	-236.601524	69.574039	1610.431671
2.290000	-230.164719	67.034048	1602.661743
2.300000	-221.315575	66.755541	1599.784241
2.310000	-215.964806	69.645252	1608.134094
2.320000	-211.662148	66.427109	1609.696503
2.330000	-208.324547	61.717848	1600.834595
2.340000	-206.472000	61.533759	1589.442902
2.350000	-204.337349	63.522439	1576.308105
2.360000	-200.351166	64.347793	1555.581970
2.370000	-193.143944	62.417926	1531.692108
2.380000	-184.607712	61.184341	1507.168060
2.390000	-176.070305	63.849595	1489.275543
2.400000	-165.883476	66.718014	1484.813843
2.410000	-156.141937	65.530210	1476.251007
2.420000	-151.712357	64.616151	1455.213028
2.430000	-147.080471	64.666065	1433.694992
2.440000	-138.948170	64.476900	1404.102539
2.450000	-125.986599	62.407461	1366.896606
2.460000	-97.054066	58.259367	1341.027191
2.470000	-48.404981	54.984955	1336.788887
2.480000	-7.405835	56.960281	1336.374939
2.490000	-0.084266	61.551568	1321.797749
2.500000	-2.103376	63.563772	1309.603947
2.510000	1.069185	66.357463	1300.250683
2.520000	3.641803	68.221196	1288.061455
2.530000	6.859103	66.476678	1272.561104
2.540000	18.003182	66.269700	1262.898902
2.550000	29.910368	65.828409	1257.028264
2.560000	36.068980	66.551073	1251.795675
2.570000	39.003670	65.472640	1255.103438
2.580000	38.283093	65.175045	1263.004595
2.590000	36.878697	61.352192	1276.916920
2.600000	30.760241	59.828008	1291.000275
2.610000	23.475769	60.582787	1306.192448
2.620000	13.896535	63.344690	1325.187143
2.630000	2.665526	68.234847	1337.232780
2.640000	-7.795922	71.559181	1353.226692
2.650000	-21.037043	72.649060	1371.120079
2.660000	-34.075522	74.577974	1389.647614
2.670000	-43.131386	73.058886	1407.542076
2.680000	-50.418064	71.865671	1420.381836
2.690000	-59.393616	72.591201	1431.483597
2.700000	-71.988699	72.717743	1446.219452
2.710000	-84.020935	72.836966	1458.103226
2.720000	-88.041840	71.510221	1467.922028
2.730000	-91.422478	69.426798	1477.577148
2.740000	-93.997471	69.635683	1489.913162
2.750000	-95.528442	70.736379	1504.621475
2.760000	-98.507530	74.195199	1513.484024
2.770000	-103.538246	74.476256	1512.865768
2.780000	-107.681992	71.703860	1510.982727
2.790000	-108.322090	68.124538	1508.618942
2.800000	-106.789928	64.349056	1499.922867
2.810000	-102.282925	61.349974	1486.158508
2.820000	-95.320877	64.005690	1469.221268
2.830000	-85.701660	64.463202	1453.381821
2.840000	-72.576248	62.812811	1432.782852
2.850000	-49.028523	61.541718	1418.638557
2.860000	-19.805235	59.814703	1406.226807
2.870000	5.271762	57.422562	1389.719078
2.880000	24.511557	56.266870	1371.482468
2.890000	41.535876	56.119667	1354.357553
2.900000	56.226474	58.860910	1343.081866
2.910000	70.152941	57.578358	1336.548274
2.920000	84.643103	55.404633	1331.606865
2.930000	99.051937	52.950489	1327.940077
2.940000	108.670483	50.779943	1320.807505
2.950000	112.737312	49.208706	1315.895413
2.960000	112.658699	49.205208	1313.516056
2.970000	111.971317	50.614298	1310.350992
2.980000	112.454365	50.578054	1310.506989
2.990000	113.177658	50.704912	1315.877266
3.000000	110.564205	51.226645	1316.035879
3.010000	109.319237	51.708952	1323.461852
3.020000	109.318222	54.564331	1328.198332
3.030000	111.329178	56.970465	1331.039732
3.040000	114.830620	58.092140	1334.672628
3.050000	117.447296	57.207325	1337.358913
3.060000	119.423538	55.196383	1340.524145
3.070000	113.830147	51.838673	1344.804570
3.080000	104.451010	51.298187	1347.037370
3.090000	96.563709	51.188185	1346.428748
3.100000	86.983284	53.248409	1342.662310
3.110000	79.456017	52.679621	1339.046799
3.120000	75.311422	51.743298	1336.058493
3.130000	74.988317	51.055285	1337.016706
3.140000	78.048393	50.492222	1345.875164
3.150000	73.984108	45.418934	1348.422027
3.160000	66.622721	44.732521	1359.666606
3.170000	58.095661	45.814785	1370.128195
3.180000	44.219196	45.380500	1374.437302
3.190000	30.422363	45.255242	1372.424503
3.200000	22.782949	43.269739	1370.879807
3.210000	17.314440	40.556485	1372.171005
3.220000	12.488064	39.083177	1378.982376
3.230000	8.745527	36.528887	1391.640358
3.240000	6.130207	35.339493	1399.714096
3.250000	1.825165	34.067755	1413.318451
3.260000	-4.088104	32.550255	1419.344398
3.270000	-10.124043	31.514740	1423.792267
3.280000	-18.210762	30.758373	1425.548462
3.290000	-23.079330	29.479639	1422.404816
3.300000	-26.380164	30.044611	1415.148132
3.310000	-28.512780	30.249043	1413.415497
3.320000	-27.747294	30.249680	1410.254036
3.330000	-25.657549	32.617342	1404.718758
3.340000	-23.929200	34.771353	1399.652786
3.350000	-19.702936	37.000076	1401.850632
3.360000	-17.892748	37.835606	1401.056923
3.370000	-21.596661	37.838467	1402.328430
3.380000	-22.764714	37.037271	1405.650322
3.390000	-26.104177	36.226534	1409.453751
3.400000	-29.443641	36.900873	1415.938416
3.410000	-27.633959	38.222528	1422.258179
3.420000	-25.745330	40.377172	1428.892776
3.430000	-24.941895	41.484539	1439.635300
3.440000	-23.696593	41.505516	1445.641434
3.450000	-25.106081	42.171269	1451.341080
3.460000	-30.257258	41.230814	1455.781433
3.470000	-38.625907	40.697313	1456.118484
3.480000	-42.812355	43.660151	1452.978653
3.490000	-46.314135	46.430005	1450.145844
3.500000	-47.399670	49.199855	1451.730392
3.510000	-44.341289	51.157065	1458.519775
3.520000	-40.074876	51.576413	1462.142365
3.530000	-37.417194	49.459276	1466.395416
3.540000	-36.489731	47.182534	1466.071106
3.550000	-36.652047	48.399580	1461.630966
3.560000	-30.457187	53.895716	1451.963074
3.570000	-20.762412	58.625629	1436.128998
3.580000	-12.799215	65.178585	1415.398277
3.590000	-3.302837	72.252005	1399.727798
3.600000	0.563900	72.687574	1390.080521
3.610000	-7.241734	71.827562	1386.616547
3.620000	-14.848124	71.767797	1384.890167
3.630000	-19.070991	70.296080	1384.582283
3.640000	-20.075368	69.626829	1386.798599
3.650000	-16.979889	69.871637	1391.700890
3.660000	-15.973984	68.740742	1397.392654
3.670000	-17.100524	67.487759	1406.719093
3.680000	-24.748594	66.563200	1406.886703
3.690000	-31.388042	65.843079	1405.479294
3.700000	-33.805138	65.091799	1407.067879
3.710000	-35.860498	62.697113	1408.346001
3.720000	-37.190864	60.531019	1415.002258
3.730000	-44.796068	59.323502	1418.185135
3.740000	-53.849891	56.905285	1422.004776
3.750000	-62.739194	56.700212	1429.613083
3.760000	-69.979095	56.396271	1434.221222
3.770000	-73.881744	57.750683	1439.307495
3.780000	-81.085735	57.708092	1444.393600
3.790000	-89.096052	56.816290	1455.330444
3.800000	-97.792557	55.271450	1471.159714
3.810000	-107.328411	51.821850	1493.152451
3.820000	-112.236115	48.924504	1510.558365
3.830000	-116.178410	48.274008	1522.116180
3.840000	-120.001255	48.511187	1527.983124
3.850000	-124.508774	48.840253	1532.427277
3.860000	-132.881157	49.773396	1532.763611
3.870000	-139.079578	49.615698	1525.670258
3.880000	-143.223839	47.812687	1515.886322
3.890000	-143.986263	46.806103	1510.997009
3.900000	-145.070103	47.334516	1513.376495
3.910000	-144.467274	49.236088	1526.184265
3.920000	-147.124786	52.019936	1537.724731
3.930000	-148.011414	53.236359	1551.005219
3.940000	-147.287609	53.607711	1565.232147
3.950000	-146.359642	52.126769	1576.456696
3.960000	-144.951511	50.638510	1577.095734
3.970000	-147.284214	49.068865	1577.419983
3.980000	-152.675808	48.467011	1572.688599
3.990000	-155.612885	48.752837	1570.006592
4.000000	-155.252846	48.243508	1571.268005
4.010000	-154.287773	46.606781	1570.633545
4.020000	-152.597206	45.720695	1576.321960
4.030000	-149.060020	45.553777	1575.842194
4.040000	-149.062401	47.220706	1573.786469
4.050000	-150.111515	50.056685	1571.251434
4.060000	-148.748463	53.181352	1566.814667
4.070000	-147.825920	52.608429	1568.385895
4.080000	-146.097061	49.632235	1572.643036
4.090000	-145.172661	47.166960	1573.747467
4.100000	-145.776337	44.701686	1571.381836
4.110000	-148.511951	44.411728	1565.536224
4.120000	-148.032303	47.131979	1558.271149
4.130000	-147.793240	50.376188	1548.472626
4.140000	-148.517044	53.540915	1537.879059
4.150000	-145.175884	55.742615	1531.715424
4.160000	-148.716801	54.862570	1523.188141
4.170000	-155.235950	52.617949	1518.294342
4.180000	-155.799816	51.089949	1517.030212
4.190000	-153.389008	50.123425	1519.876404
4.200000	-152.144886	49.994658	1522.085175
4.210000	-148.445225	50.022316	1527.611969
4.220000	-146.353271	48.849133	1535.352081
4.230000	-147.841034	49.043388	1538.039185
4.240000	-148.604145	49.927250	1535.669647
4.250000	-150.053104	50.613674	1530.300507
4.260000	-151.945644	53.099607	1526.356323
4.270000	-153.595894	53.291002	1519.725342
4.280000	-154.602985	53.156513	1513.881378
4.290000	-155.409302	53.942125	1508.192871
4.300000	-156.455536	54.004435	1498.074036
4.310000	-152.270790	55.916496	1488.426270
4.320000	-146.758724	59.698658	1485.412445
4.330000	-146.679092	65.535954	1490.310333
4.340000	-150.343361	69.116228	1496.479858
4.350000	-155.095871	69.644321	1504.706146
4.360000	-158.517685	68.157652	1516.561188
4.370000	-158.759964	65.218975	1522.096985
4.380000	-157.190536	63.968853	1526.210419
4.390000	-157.512970	64.165653	1529.221649
4.400000	-161.701286	64.413326	1527.654358
4.410000	-168.101501	64.905495	1532.248901
4.420000	-171.724762	63.825466	1534.630249
4.430000	-175.424599	59.928215	1532.585449
4.440000	-174.978821	57.799316	1529.589844
4.450000	-174.654015	56.554602	1529.596222
4.460000	-175.779373	56.399767	1533.079498
4.470000	-179.080879	60.020418	1538.143829
4.480000	-184.554153	62.877071	1540.997101
4.490000	-188.055588	64.527155	1547.640839
4.500000	-188.538971	65.767420	1552.543304
4.510000	-187.732147	65.003738	1554.760620
4.520000	-188.454926	65.523882	1553.184296
4.530000	-186.482590	68.059099	1552.554626
4.540000	-188.493210	71.000961	1548.131775
4.550000	-190.705627	75.032700	1544.183929
4.560000	-192.275055	79.739738	1547.507141
4.570000	-193.078659	83.843014	1549.724762
4.580000	-192.512756	88.750984	1550.678436
4.590000	-190.500275	94.828320	1552.420227
4.600000	-188.326820	101.181946	1550.842285
4.610000	-188.604851	106.085781	1545.785309
4.620000	-185.624237	108.993301	1540.718689
4.630000	-181.276657	111.487190	1539.124695
4.640000	-178.334663	110.121338	1544.484283
4.650000	-173.421021	106.710850	1553.954437
4.660000	-167.623291	106.596710	1563.740662
4.670000	-163.274364	106.002171	1567.682892
4.680000	-160.774925	105.772308	1568.149567
4.690000	-157.067108	106.260342	1567.505951
4.700000	-153.361668	105.225464	1564.178833
4.710000	-150.657890	103.027576	1554.841919
4.720000	-145.574966	99.395176	1546.128174
4.730000	-129.434048	95.506830	1550.044373
4.740000	-121.986073	95.911245	1551.454559
4.750000	-122.266136	91.856615	1559.353943
4.760000	-119.854136	88.689346	1570.411041
4.770000	-119.128971	88.644518	1576.415436
4.780000	-123.233753	86.196098	1580.685730
4.790000	-123.959084	85.225761	1577.206879
4.800000	-121.022861	83.412891	1573.253143
4.810000	-118.650682	82.051809	1565.503815
4.820000	-116.842703	82.372927	1565.813507
4.830000	-115.674644	80.719976	1568.812927
4.840000	-113.902405	78.634319	1577.974365
4.850000	-113.500185	79.068619	1583.349030
4.860000	-113.058481	77.702452	1588.095795
4.870000	-115.436094	76.867237	1586.520172
4.880000	-116.929291	78.193346	1584.318268
4.890000	-122.725151	76.829085	1583.381317
4.900000	-127.514938	77.870321	1584.340027
4.910000	-128.278896	78.626690	1583.084534
4.920000	-127.195232	77.419806	1581.349274
4.930000	-125.507542	79.261921	1580.403503
4.940000	-124.143475	80.747952	1578.983643
4.950000	-126.441631	80.183933	1574.249054
4.960000	-132.078056	78.329414	1570.157501
4.970000	-139.002155	73.905342	1561.009338
4.980000	-144.596909	67.229652	1554.228760
4.990000	-148.138668	61.315735	1549.030060
5.000000	-150.515778	56.774980	1538.931549
5.010000	-151.722458	54.128804	1535.776459
5.020000	-148.625111	54.982465	1537.826324
5.030000	-145.044891	56.353405	1535.610321
5.040000	-144.682819	54.345958	1534.977020
5.050000	-146.213284	50.931334	1529.293457
5.060000	-150.478508	48.879062	1524.243500
5.070000	-153.817467	46.428096	1527.728455
5.080000	-156.394321	45.145544	1526.787079
5.090000	-158.770756	45.147453	1525.056915
5.100000	-159.656876	46.438273	1529.642944
5.110000	-158.409702	47.160621	1526.799866
5.120000	-158.972206	47.318633	1520.477631
5.130000	-157.077972	48.317905	1517.625793
5.140000	-155.507355	48.682895	1521.568359
5.150000	-155.430103	48.928980	1527.252411
5.160000	-156.236252	48.693072	1540.047089
5.170000	-154.547039	48.092812	1553.630493
5.180000	-155.432140	47.367917	1565.798889
5.190000	-156.635593	45.994435	1575.436798
5.200000	-154.419785	45.911769	1578.756561
5.210000	-156.672691	46.993066	1580.974213
5.220000	-159.850513	48.039076	1584.774536
5.230000	-164.078308	49.407151	1583.517548
5.240000	-166.292084	51.053741	1586.048340
5.250000	-165.528122	51.768139	1588.258606
5.260000	-164.117954	52.916517	1589.995178
5.270000	-160.253590	54.912830	1591.884613
5.280000	-158.080994	56.239893	1591.569885
5.290000	-159.531487	58.097273	1588.099030
5.300000	-162.149010	57.984409	1589.528046
5.310000	-164.603210	54.776125	1590.954254
5.320000	-164.320251	53.529815	1595.853912
5.330000	-162.708633	51.678161	1600.434723
5.340000	-157.999832	50.994598	1599.638855
5.350000	-150.675552	53.725026	1597.576874
5.360000	-145.847137	56.542890	1593.463074
5.370000	-143.071877	57.478579	1586.822266
5.380000	-143.837536	55.522959	1584.611176
5.390000	-145.650265	52.642150	1575.924957
5.400000	-147.543819	48.951238	1569.609070
5.410000	-150.404823	45.664742	1569.615601
5.420000	-150.810951	44.704581	1566.935059
5.430000	-151.460560	44.546884	1563.621857
5.440000	-153.154865	43.825489	1562.991028
5.450000	-153.881897	42.297174	1562.676605
5.460000	-153.198586	39.997861	1560.147125
5.470000	-152.796703	36.581327	1560.781250
5.480000	-155.051140	34.056605	1557.939789
5.490000	-158.512077	33.376860	1556.050385
5.500000	-161.853241	33.943423	1553.683441
5.510000	-162.738853	36.078675	1557.950409
5.520000	-162.576538	37.125005	1560.955566
5.530000	-164.023636	36.445892	1565.226807
5.540000	-165.230988	35.883465	1569.338989
5.550000	-166.679108	34.997698	1578.035553
5.560000	-171.831474	35.798575	1580.888153
5.570000	-175.374420	36.600091	1584.213470
5.580000	-176.018600	37.638148	1584.532715
5.590000	-177.789650	37.870239	1580.906677
5.600000	-180.285179	37.547852	1582.493622
5.610000	-183.303581	36.824866	1583.927551
5.620000	-189.338501	36.301228	1586.786865
5.630000	-194.489342	37.021352	1587.433411
5.640000	-198.997025	37.783441	1583.183289
5.650000	-203.866943	38.501019	1577.353241
5.660000	-208.898170	38.657761	1569.942444
5.670000	-215.055939	36.567337	1565.057678
5.680000	-221.332291	35.315620	1566.653046
5.690000	-224.269539	34.024486	1574.402832
5.700000	-223.704651	32.409054	1583.731049
5.710000	-224.386772	29.953953	1601.913483
5.720000	-227.001411	29.948231	1616.146942
5.730000	-230.180763	30.267119	1626.590668
5.740000	-235.010193	30.221972	1632.770416
5.750000	-240.807922	30.654995	1631.520813
5.760000	-245.679710	31.769359	1621.731018
5.770000	-246.849808	34.126210	1616.516083
5.780000	-246.165314	35.238027	1615.724304
5.790000	-246.285606	36.473204	1619.044098
5.800000	-247.574638	37.595194	1627.579224
5.810000	-248.621880	38.118836	1633.902008
5.820000	-247.980080	38.723232	1644.328888
5.830000	-246.611588	39.606772	1655.392029
5.840000	-244.357330	40.579022	1659.021454
5.850000	-239.528244	40.228661	1663.596375
5.860000	-237.636383	39.508218	1661.382538
5.870000	-239.245110	37.779604	1659.650177
5.880000	-242.183716	36.971729	1655.862823
5.890000	-245.605347	36.042404	1654.762695
5.900000	-247.820137	35.672322	1654.291901
5.910000	-246.088905	37.268989	1654.922729
5.920000	-243.431213	38.542319	1656.025848
5.930000	-240.291855	39.467829	1658.074066
5.940000	-237.393410	42.884366	1659.963959
5.950000	-236.911728	44.251803	1665.016846
5.960000	-239.608208	44.002542	1670.708252
5.970000	-241.257263	43.303395	1673.244293
5.980000	-241.376884	42.930136	1671.829712
5.990000	-243.630478	41.074662	1669.471649
6.000000	-246.729012	40.668976	1667.112244
6.010000	-250.590141	42.435107	1660.167297
6.020000	-253.163429	43.804138	1656.218353
6.030000	-253.081772	46.420111	1651.796021
6.040000	-251.229553	47.505859	1642.787445
6.050000	-249.499168	46.297705	1639.470184
6.060000	-249.981873	43.246161	1640.740845
6.070000	-252.154648	40.875954	1639.010742
6.080000	-255.333153	40.030882	1636.805511
6.090000	-256.619118	40.831759	1634.123138
6.100000	-255.530357	43.962788	1627.646088
6.110000	-254.042427	45.814444	1627.484802
6.120000	-253.197823	47.020691	1630.169128
6.130000	-252.553299	46.898285	1635.694427
6.140000	-251.949463	46.130789	1643.118622
6.150000	-250.339020	45.363928	1648.013977
6.160000	-248.287392	45.281898	1645.329224
6.170000	-249.093719	45.165218	1638.855194
6.180000	-251.911514	45.211002	1630.170746
6.190000	-255.412949	46.019831	1621.799805
6.200000	-258.912010	47.107805	1615.481781
6.210000	-259.676300	47.352618	1608.686920
6.220000	-258.871346	48.639301	1597.151733
6.230000	-257.744980	48.400213	1583.718689
6.240000	-259.033485	47.157407	1570.760010
6.250000	-258.830856	45.870088	1555.580963
6.260000	-256.010681	44.825988	1542.766846
6.270000	-250.051491	44.633957	1534.844482
6.280000	-243.769012	47.689956	1528.501892
6.290000	-241.436142	50.866763	1526.910889
6.300000	-243.571640	51.154817	1529.905365
6.310000	-243.010323	50.917000	1534.954773
6.320000	-241.320595	49.430655	1536.213165
6.330000	-240.231163	47.178398	1533.366333
6.340000	-239.264565	45.169366	1526.886108
6.350000	-239.828926	44.967158	1515.352692
6.360000	-241.923943	45.733702	1501.608154
6.370000	-244.904045	48.426931	1488.651184
6.380000	-247.038185	49.230355	1479.013397
6.390000	-247.440239	49.028466	1471.269989
6.400000	-245.226135	48.782700	1465.577759
6.410000	-241.846344	47.859415	1462.728943
6.420000	-239.755417	48.020926	1466.196625
6.430000	-239.233734	50.911912	1471.091553
6.440000	-238.793053	51.714698	1478.671112
6.450000	-240.202034	51.069609	1481.831451
6.460000	-241.247925	50.904915	1477.566864
6.470000	-242.817192	50.821934	1467.298584
6.480000	-245.999077	50.704616	1458.454224
6.490000	-249.020195	50.668055	1450.873535
6.500000	-251.396454	49.869085	1445.664185
6.510000	-253.570404	48.585262	1442.980499
6.520000	-253.327614	46.814999	1444.246338
6.530000	-251.594002	46.648715	1447.721741
6.540000	-250.545219	46.560961	1451.987915
6.550000	-250.183327	47.322735	1456.255585
6.560000	-251.152466	49.897059	1459.577118
6.570000	-253.447739	51.546827	1461.949310
6.580000	-254.092934	51.713108	1464.319000
6.590000	-254.295403	50.232170	1466.376404
6.600000	-254.656624	48.948346	1465.744385
6.610000	-253.247993	47.741782	1465.427307
6.620000	-252.644310	47.658164	1463.850555
6.630000	-253.086853	48.660612	1461.169037
6.640000	-255.259964	49.782925	1458.016357
6.650000	-258.520134	48.817990	1456.761871
6.660000	-262.222527	47.652757	1454.083466
6.670000	-264.273132	48.051127	1450.766693
6.680000	-264.555061	47.492836	1450.291473
6.690000	-263.187935	48.180213	1458.973633
6.700000	-257.714836	50.712888	1472.711273
6.710000	-252.281212	50.108492	1485.188507
6.720000	-250.670792	49.024649	1493.879669
6.730000	-250.105904	48.377332	1492.460144
6.740000	-252.197861	48.011387	1488.514191
6.750000	-255.943619	48.822441	1484.092987
6.760000	-259.767151	52.519394	1483.303986
6.770000	-258.840195	50.794278	1484.879944
6.780000	-257.874947	48.464449	1485.193756
6.790000	-255.135597	48.099136	1487.401886
6.800000	-250.144196	45.124533	1487.556915
6.810000	-249.379883	44.358308	1484.397400
6.820000	-249.743835	47.175856	1479.500214
6.830000	-249.142029	49.465626	1471.598206
6.840000	-249.462410	49.019561	1464.486938
6.850000	-250.024071	48.219002	1463.534454
6.860000	-247.567337	47.819036	1466.684937
6.870000	-243.741768	47.337686	1476.789886
6.880000	-240.200516	49.672284	1488.318359
6.890000	-235.453094	53.732002	1502.374878
6.900000	-232.757462	56.344797	1512.484528
6.910000	-232.153786	56.751118	1518.490723
6.920000	-233.559875	55.947060	1521.021667
6.930000	-235.409538	53.013468	1515.179016
6.940000	-237.259712	49.842701	1508.548035
6.950000	-237.621780	50.084969	1498.435272
6.960000	-237.421173	49.966060	1492.903900
6.970000	-238.187340	50.610834	1491.957672
6.980000	-237.464722	50.813357	1489.588287
6.990000	-236.417313	48.920372	1487.689789
7.000000	-233.922112	45.824951	1482.789520
7.010000	-231.267822	44.899757	1472.991821
7.020000	-230.223473	43.934823	1457.823730
7.030000	-230.790726	42.087621	1438.074341
7.040000	-232.364059	40.723678	1417.691284
7.050000	-235.344505	38.193868	1402.999023
7.060000	-236.874458	35.019598	1393.830231
7.070000	-234.704750	32.854140	1391.455109
7.080000	-232.453033	33.780923	1393.186584
7.090000	-228.270653	35.146775	1392.702240
7.100000	-223.686394	35.630353	1391.429413
7.110000	-221.596657	36.876663	1385.576721
7.120000	-222.202202	36.954874	1378.304932
7.130000	-225.059128	36.670004	1373.404907
7.140000	-228.036865	36.265585	1368.191010
7.150000	-232.182808	36.305330	1367.560303
7.160000	-232.788361	36.830877	1368.980621
7.170000	-230.535278	38.639929	1375.772980
7.180000	-227.799492	38.240287	1376.875580
7.190000	-226.992668	35.149636	1380.982849
7.200000	-229.848747	32.419208	1385.251953
7.210000	-233.307144	32.017019	1390.628754
7.220000	-235.802673	31.171627	1391.105286
7.230000	-238.378181	30.527173	1396.641022
7.240000	-238.780754	29.041461	1398.859131
7.250000	-239.986244	27.354495	1402.182709
7.260000	-242.396881	27.754139	1408.192993
7.270000	-243.280121	29.440786	1413.568176
7.280000	-243.158463	32.013202	1417.834656
7.290000	-243.843811	35.515581	1419.728180
7.300000	-243.603722	40.221664	1425.573975
7.310000	-241.309311	43.196587	1431.736176
7.320000	-242.595268	43.996193	1432.057953
7.330000	-245.450165	43.553308	1433.328003
7.340000	-246.696831	43.673487	1437.917175
7.350000	-246.856438	44.838402	1439.185120
7.360000	-246.936218	46.525366	1438.234741
7.370000	-243.516800	48.016166	1434.909912
7.380000	-240.417419	48.060681	1434.899567
7.390000	-237.600471	46.335562	1441.372437
7.400000	-236.152695	42.559443	1450.847656
7.410000	-234.904335	39.502814	1458.586792
7.420000	-233.658348	36.850912	1463.483032
7.430000	-231.124359	35.687268	1458.425201
7.440000	-229.554932	34.645398	1451.945007
7.450000	-228.346558	35.053627	1444.510803
7.460000	-227.057022	36.786376	1442.447357
7.470000	-223.674179	39.046582	1440.850067
7.480000	-218.279015	40.181933	1438.614075
7.490000	-209.701263	40.079561	1431.947083
7.500000	-195.847809	37.711590	1424.160461
7.510000	-173.627563	35.566179	1423.787201
7.520000	-152.656715	34.896301	1427.211700
7.530000	-146.655834	37.215956	1426.244781
7.540000	-155.064632	35.139193	1419.606567
7.550000	-155.790646	33.879850	1417.537384
7.560000	-152.212299	35.868214	1405.978729
7.570000	-149.842316	34.836187	1392.832794
7.580000	-140.155014	35.755645	1373.501221
7.590000	-116.788963	43.106924	1357.451584
7.600000	-85.372612	48.123920	1360.037094
7.610000	-62.649714	50.826672	1357.112076
7.620000	-48.213629	56.190864	1342.198433
7.630000	-35.220909	57.316346	1320.490295
7.640000	-19.935802	56.332012	1297.201279
7.650000	-4.364859	56.442017	1276.597328
7.660000	10.038711	58.138838	1266.426594
7.670000	24.364519	61.270822	1260.689660
7.680000	37.805567	62.106672	1253.697727
7.690000	48.149775	60.617776	1252.879261
7.700000	53.262667	59.086600	1250.963429
7.710000	58.134630	56.720525	1251.422270
7.720000	61.476980	55.525726	1246.197960
7.730000	68.364824	57.385334	1239.394779
7.740000	69.531012	58.064454	1234.500019
7.750000	63.979643	56.901459	1224.398617
7.760000	58.470808	54.076288	1222.989255
7.770000	52.118553	48.189083	1221.431743
7.780000	43.072030	44.100119	1217.033805
7.790000	39.776287	40.699484	1212.625076
7.800000	42.194740	40.070293	1213.579209
7.810000	42.880425	42.890701	1213.582807
7.820000	42.519881	45.588066	1214.370149
7.830000	42.682705	45.914907	1213.579050
7.840000	42.642891	44.308062	1212.786805
7.850000	42.120031	41.651390	1205.834053
7.860000	44.895971	40.517948	1199.512101
7.870000	48.034996	42.320641	1200.294212
7.880000	48.759312	45.696480	1203.299128
7.890000	44.372770	47.353243	1201.255044
7.900000	39.986061	47.362146	1197.945753
7.910000	38.379024	45.998524	1185.949760
7.920000	37.897167	42.908192	1165.421207
7.930000	37.937490	39.214419	1135.725698
7.940000	39.866954	37.447972	1094.974234
7.950000	41.112429	36.762502	1040.160690
7.960000	40.305431	34.507704	989.610346
7.970000	40.386760	32.693244	953.591080
7.980000	37.731792	29.228700	918.836308
7.990000	32.017601	24.275900	886.772495
8.000000	31.694325	20.332227	852.490946
8.010000	35.070887	19.087511	815.840961
8.020000	39.531115	17.680965	765.607574
8.030000	49.181999	15.551751	697.361801
8.040000	58.109922	13.381524	627.221203
8.050000	60.121735	10.809426	569.399881
8.060000	56.701622	9.318309	528.166479
8.070000	50.664156	8.469101	495.624898
8.080000	46.113602	9.385707	463.398593
8.090000	48.601835	10.714678	445.706430
8.100000	48.197231	10.512789	427.066993
8.110000	57.210054	11.476769	406.366725
8.120000	57.451830	9.420997	388.521840
8.130000	54.030191	6.686752	364.514948
8.140000	50.284256	5.841997	336.558590
8.150000	47.262127	6.081720	310.026651
8.160000	47.056770	6.841585	284.914209
8.170000	52.325865	7.445026	263.112326
8.180000	53.449858	6.401244	245.262035
8.190000	50.916206	4.307321	230.570917
8.200000	47.576235	3.141769	215.879301
8.210000	46.288736	2.859761	196.917240
8.220000	43.512629	2.095125	185.859660
8.230000	41.257174	2.093853	177.806236
8.240000	44.313517	3.458750	167.693942
8.250000	51.759285	3.054971	162.319588
8.260000	53.691465	1.126375	161.534217
8.270000	52.160831	1.205859	158.216759
8.280000	49.506546	1.892918	153.793922
8.290000	47.575386	2.334848	150.163166
8.300000	50.953135	2.499222	145.424740
8.310000	53.607761	2.820019	142.105484
8.320000	53.648764	1.332081	137.051634
8.330000	53.891390	0.084820	130.414432
8.340000	53.971020	-0.800631	125.516083
8.350000	53.487297	-2.087316	119.034868
8.360000	51.032764	-2.008150	111.451390
8.370000	49.905207	-1.650474	106.552877
8.380000	50.869259	-2.938749	101.971588
8.390000	56.905878	-4.582156	95.963760
8.400000	57.872139	-5.546136	90.747363
8.410000	52.278919	-5.674266	88.695870
8.420000	51.313848	-5.071142	84.429186
8.430000	53.126413	-4.626668	81.426667
8.440000	53.448160	-3.702112	81.429123
8.450000	53.810062	-2.978491	81.588718
8.460000	55.420834	-2.014511	79.058927
8.470000	55.542997	-1.453355	77.477704
8.480000	54.779549	-1.089318	77.478358
8.490000	54.053707	0.797310	74.159100
8.500000	52.123224	1.681806	73.369637
8.510000	53.049160	2.124055	72.421230
8.520000	55.945732	2.726542	70.207681
8.530000	56.590416	3.329030	67.203686
8.540000	54.980152	3.450799	67.363939
8.550000	53.852594	3.089625	67.839289
8.560000	53.128450	2.728768	65.626233
8.570000	52.846857	2.567575	65.942804
8.580000	53.852425	2.606681	65.467126
8.590000	54.375284	2.406063	66.415532
8.600000	55.462008	1.602641	66.416516
8.610000	54.899162	0.756614	66.100107
8.620000	53.894617	0.352200	64.676351
8.630000	53.935110	-0.129790	62.779540
8.640000	54.539297	-0.410527	61.516528
8.650000	54.820042	-0.490647	61.516526
8.660000	55.585020	0.031403	59.777181
8.670000	55.344259	-0.370467	58.828940
8.680000	55.667027	-0.570449	56.616210
8.690000	54.299049	-0.851503	56.615883
8.700000	53.855989	-0.047763	55.351889
8.710000	54.420362	0.634845	55.510173
8.720000	54.540655	0.956277	57.091725
8.730000	55.425928	1.279300	55.984212
8.740000	55.909653	0.635163	56.458908
8.750000	55.708708	0.634845	56.143646
8.760000	55.186018	0.394804	56.774005
8.770000	54.783283	0.597329	56.773349
8.780000	54.943392	0.718462	58.513350
8.790000	55.506239	1.118743	58.670162
8.800000	55.989283	1.478963	61.673501
8.810000	56.634474	1.880515	61.198154
8.820000	56.152617	1.516479	63.411210
8.830000	55.025061	1.638566	62.779377
8.840000	54.259743	1.357512	60.093097
8.850000	53.656065	1.559719	61.199626
8.860000	53.373962	1.640474	58.987717
8.870000	53.775848	1.237968	59.935960
8.880000	53.937656	0.875522	60.884202
8.890000	54.460855	0.434227	58.827957
8.900000	54.660952	0.152854	60.566811
8.910000	54.138260	-0.209592	59.459789
8.920000	54.420193	-0.131063	61.198643
8.930000	55.587225	-0.533251	60.406887
8.940000	55.950827	-0.734504	60.406558
8.950000	56.434380	-0.855638	60.881416
8.960000	55.710238	-0.854684	60.565171
8.970000	55.669064	-0.412117	59.142889
8.980000	55.749544	0.151582	58.194649
8.990000	55.628908	0.473015	56.929996
9.000000	55.829681	0.313412	55.982574
9.010000	55.830702	0.393849	55.034660
9.020000	56.112123	0.675222	53.295150
9.030000	55.790207	0.996973	53.611066
9.040000	55.468290	1.439221	54.084450
9.050000	55.347145	1.760972	53.452288
9.060000	55.588755	1.760018	53.611722
9.070000	56.072140	1.679262	52.030337
9.080000	55.589603	1.558129	51.555969
9.090000	55.509125	1.677672	51.872377
9.100000	55.067423	1.114926	52.504375
9.110000	54.342770	1.556857	53.454748
9.120000	54.463913	1.032263	53.294496
9.130000	54.504578	0.389079	53.454420
9.140000	54.624870	0.068601	53.769354
9.150000	54.423588	-0.493509	52.978907
9.160000	55.267855	-0.733868	54.085107
9.170000	55.589603	-0.975499	53.610413
9.180000	55.830702	-0.653430	53.926166
9.190000	55.750902	-0.453449	53.610905
9.200000	55.871195	-0.733868	53.452619
9.210000	55.751070	-0.452177	53.769026
9.220000	55.348675	-0.531661	53.451634
9.230000	55.910841	-0.689674	54.558489
9.240000	55.910841	-0.367605	54.874407
9.250000	55.910501	0.034583	54.241262
9.260000	56.191923	0.356970	57.244605
9.270000	55.146881	0.798582	57.719299
9.280000	53.379055	0.388761	57.404037
9.290000	53.098482	1.351151	59.299866
9.300000	53.659800	1.758428	59.457495
9.310000	53.780264	0.473969	60.722802
9.320000	55.550976	1.196636	60.404754
9.330000	55.309200	1.560673	61.038228
9.340000	55.951843	1.039895	62.460508
9.350000	55.789698	0.919716	59.614143
9.360000	54.742790	1.405522	60.405573
9.370000	54.259914	1.524429	58.983454
9.380000	53.858366	0.438680	58.983948
9.390000	54.864611	1.121923	57.719297
9.400000	56.033003	1.159121	56.296852
9.410000	57.079403	0.634209	55.664035
9.420000	57.442324	0.794766	54.556196
9.430000	56.516556	0.795720	55.347955
9.440000	55.066404	-0.168260	56.613588
9.450000	54.583529	-0.688720	53.768370
9.460000	54.342430	-0.527209	54.243886
9.470000	54.664856	-0.606692	55.349430
9.480000	54.625042	-0.892517	54.559474
9.490000	54.947468	-0.207684	53.452455
9.500000	54.666214	-0.367923	54.085599
9.510000	54.345148	-0.328181	54.717923
9.520000	53.942240	-0.127246	52.346910
9.530000	54.062704	0.395122	52.345763
9.540000	54.384792	0.033311	52.820786
9.550000	54.706200	0.074007	54.400532
9.560000	54.827173	0.395758	53.452455
9.570000	54.907143	0.355062	53.926657
9.580000	54.344128	0.354426	54.242246
9.590000	53.580170	0.594467	55.666165
9.600000	52.616116	0.592241	58.985259
9.610000	52.375019	0.026951	58.194813
9.620000	52.616457	-0.010883	59.933502
9.630000	53.420401	-0.291302	60.722474
9.640000	53.902765	-0.210864	59.774232
9.650000	54.344976	0.232338	58.984604
9.660000	54.706709	0.353790	61.037736
9.670000	54.504915	0.394168	59.456676
9.680000	54.585226	0.516255	59.298720
9.690000	54.987623	0.434863	59.139614
9.700000	54.746185	0.435181	58.825171
9.710000	54.705179	0.516573	58.508271
9.720000	54.665026	0.638979	57.560028
9.730000	54.463913	0.596693	56.138896
9.740000	54.181810	0.878702	54.241755
9.750000	53.699446	0.758522	54.243229
9.760000	53.337543	0.276214	52.029845
9.770000	52.894823	0.759158	52.504049
9.780000	53.096785	0.636435	51.082424
9.790000	52.493784	0.957867	50.292139
9.800000	52.534790	0.475877	50.767488
9.810000	52.213381	0.274942	52.189442
9.820000	53.181168	-0.247108	54.720220
9.830000	52.336903	-1.249558	56.302097
9.840000	52.216097	-1.449221	59.464708
9.850000	51.373018	-2.132782	61.837199
9.860000	50.568396	-2.372823	63.260464
9.870000	50.486900	-2.129602	61.996467
9.880000	50.085012	-1.647612	62.629120
9.890000	50.364567	-1.643795	60.415737
9.900000	50.927073	-2.085090	60.258105
9.910000	50.805759	-2.085090	60.257940
9.920000	51.086674	-1.763339	57.727657
9.930000	51.850632	-2.365191	57.726508
9.940000	50.643272	-2.486324	59.781279
9.950000	46.260298	-2.170934	63.259968
9.960000	44.008238	-2.212902	64.365350
9.970000	44.730852	-2.730817	68.159466
9.980000	46.621010	-3.329170	70.369408
9.990000	47.827179	-3.206447	70.369407
10.000000	48.751757	-2.723185	73.370128
10.010000	49.635839	-2.481872	73.685389
10.020000	50.239859	-2.159803	70.522451
10.030000	51.124619	-1.678449	70.365150
10.040000	52.130863	-1.559224	70.046610
10.050000	52.131205	-1.481330	66.726862
10.060000	52.413136	-0.878842	65.462048
10.070000	53.137280	-0.599060	64.040421
10.080000	53.741638	-0.280807	61.352015
10.090000	53.501049	-0.080826	60.404264
10.100000	53.622532	-0.282715	58.191537
10.110000	53.261139	-0.444863	57.401252
10.120000	53.462252	-0.405439	55.821832
10.130000	53.945467	-0.285259	56.136765
10.140000	53.744524	-0.446771	54.557675
10.150000	53.463612	-0.368559	54.082978
10.160000	53.262667	-0.851185	52.819966
10.170000	53.062063	-0.891881	52.345107
10.180000	52.297256	-0.891881	52.029191
10.190000	52.255913	-0.851503	52.503394
10.200000	52.094614	-0.890609	51.238744
10.210000	52.375698	-0.729734	52.819475
10.220000	52.374678	-1.089954	50.765032
10.230000	52.092579	-1.409797	51.712619
10.240000	51.568529	-1.691806	51.712782
10.250000	51.448065	-1.691806	50.446985
10.260000	51.206966	-1.129378	51.871067
10.270000	50.844387	-1.290571	51.870413
10.280000	51.327600	-1.691806	52.976613
10.290000	51.166473	-1.852681	54.240444
10.300000	51.327261	-2.333399	54.713174
10.310000	51.528713	-2.413519	57.874636
10.320000	51.930771	-2.131510	56.767616
10.330000	52.212025	-2.251689	57.716184
10.340000	53.298237	-2.210675	57.875784
10.350000	54.827343	-2.208131	56.135127
10.360000	54.626060	-2.529882	56.926394
10.370000	54.023230	-2.493320	55.503130
10.380000	53.782131	-2.492366	55.503950
10.390000	53.821777	-2.049800	54.238151
10.400000	54.103539	-1.808487	54.556034
10.410000	54.385471	-1.407253	54.396273
10.420000	54.143354	-1.407571	53.291712
10.430000	53.902086	-1.126834	53.133262
10.440000	53.661327	-1.166894	51.709996
10.450000	53.339241	-1.248921	50.446004
10.460000	53.097633	-1.289299	50.446822
10.470000	52.614758	-0.685858	49.814986
10.480000	52.695068	-0.404485	49.498905
10.490000	52.373661	-0.446453	48.864943
10.500000	52.252518	-0.325001	47.601274
10.510000	52.734884	-0.362835	49.023392
10.520000	52.613400	-0.522120	48.074987
10.530000	52.411608	-0.441365	48.707475
10.540000	51.726772	-0.439138	49.182334
10.550000	51.726261	-0.278263	49.654898
10.560000	52.531902	-0.199416	50.762411
10.570000	53.054764	-0.038540	49.655062
10.580000	52.852970	-0.117388	51.077180
10.590000	52.732168	-0.237885	50.287060
10.600000	53.335846	0.125834	50.917912
10.610000	53.013758	0.284801	50.759953
10.620000	53.013758	0.406570	52.499461
10.630000	53.214872	0.447584	51.392277
10.640000	53.900389	0.565856	52.182725
10.650000	55.432379	0.922260	52.338883
10.660000	55.150448	0.841822	52.497169
10.670000	54.505936	0.922578	54.078556
10.680000	53.781113	0.841822	53.446557
10.690000	53.016645	0.842776	54.551611
10.700000	52.775719	0.761384	55.342878
10.710000	52.695238	0.721007	54.552101
10.720000	52.011759	0.760430	56.924099
10.730000	51.086502	0.558859	57.239527
10.740000	50.764416	0.639297	57.872997
10.750000	51.045328	0.600509	57.240836
10.760000	50.844387	0.317864	58.188588
10.770000	50.804401	-0.164126	55.185082
10.780000	51.327261	0.037763	55.026141
10.790000	51.246782	-0.283669	54.711536
10.800000	51.367414	-0.524982	53.604024
10.810000	51.005684	-0.607010	52.814723
10.820000	51.045328	-0.525618	51.708194
10.830000	51.286766	-0.485559	52.498477
10.840000	50.925035	-0.886475	52.656765
10.850000	51.206797	-1.289299	51.866807
10.860000	51.046349	-1.489917	52.341339
10.870000	51.247631	-1.812303	51.392933
10.880000	51.529053	-1.811031	51.392115
10.890000	51.770151	-1.450175	51.549909
10.900000	51.810986	-1.249558	51.392934
10.910000	51.730507	-1.048622	51.551219
10.920000	51.650368	-1.249876	51.391296
10.930000	51.609533	-1.490553	51.550564
10.940000	51.649858	-1.248921	52.182889
10.950000	51.448404	-1.088046	52.183708
10.960000	51.850632	-0.926535	52.657584
10.970000	51.769812	-0.565360	52.025587
10.980000	51.246782	-0.685540	51.234320
10.990000	51.166811	-0.444545	52.025423
11.000000	51.207136	-0.365061	52.500444
11.010000	50.925205	-0.405757	53.764277
11.020000	51.368095	-0.042356	53.288926
11.030000	51.246950	0.037763	53.605007
11.040000	51.206118	-0.002297	55.186393
11.050000	51.125639	-0.041084	55.658630
11.060000	51.286938	-0.001024	55.501656
11.070000	51.327261	-0.081780	56.448914
11.080000	51.367586	-0.001342	55.817081
11.090000	51.890446	0.279394	57.081894
11.100000	51.890955	-0.122476	56.450063
11.110000	51.850632	-0.162854	55.658631
11.120000	51.729826	-0.282397	56.291121
11.130000	52.212362	-0.282715	55.816424
11.140000	52.212025	-0.443273	55.658467
11.150000	52.051405	-0.604784	53.288270
11.160000	52.171869	-0.604466	54.394800
11.170000	52.293011	-0.685222	53.921088
11.180000	52.292673	-0.966277	52.656600
11.190000	52.373322	-0.885203	52.972517
11.200000	52.333508	-1.086774	51.866973
11.210000	52.655083	-1.006654	51.708196
11.220000	52.132223	-0.806037	51.707703
11.230000	52.534109	-0.765341	49.653423
11.240000	52.413136	-0.965641	51.708359
11.250000	52.091898	-0.967231	50.444693
11.260000	52.132223	-1.126516	50.919551
11.270000	52.052254	-1.207590	49.653424
11.280000	52.212362	-1.006336	49.179056
11.290000	52.413647	-0.925899	49.337344
11.300000	52.413647	-1.126516	49.338489
11.310000	52.896183	-0.845143	49.179877
11.320000	52.775377	-1.206954	49.811219
11.330000	53.057650	-1.005382	50.126972
11.340000	53.057480	-1.045760	49.811383
11.350000	53.057480	-0.764387	49.494811
11.360000	53.137449	-0.965323	50.759953
11.370000	53.097124	-0.723691	50.918567
11.380000	53.178282	-1.127152	50.128119
11.390000	53.339411	-1.206318	49.021262
11.400000	53.097633	-1.045760	49.969342
11.410000	53.138298	-0.644844	48.704856
11.420000	52.856535	-1.126516	48.389755
11.430000	53.017494	-1.006654	48.863467
11.440000	52.896860	-1.006336	48.862156
11.450000	52.856535	-1.046714	49.969178
11.460000	52.615606	-1.126516	47.598982
11.470000	52.414665	-1.087728	48.706002
11.480000	52.213552	-1.047032	47.915555
11.490000	52.414665	-1.449857	48.547879
11.500000	52.656441	-1.448267	47.441842
11.510000	52.736580	-1.086456	48.705674
11.520000	53.380415	-1.368465	49.337508
11.530000	53.299936	-1.408525	47.915227
11.540000	53.622192	-1.609778	48.863142
11.550000	53.701992	-1.328405	49.653097
11.560000	53.661499	-1.287073	47.282247
11.570000	54.063894	-1.286437	48.704036
11.580000	54.225191	-1.126834	49.178566
11.590000	54.185036	-1.166258	50.917258
11.600000	54.386150	-0.966277	51.075707
11.610000	53.903446	-0.926535	50.758479
11.620000	53.501558	-0.846415	50.442070
11.630000	53.139317	-0.767250	50.284931
11.640000	52.776905	-0.606056	52.023455
11.650000	52.535807	-0.605420	51.706883
11.660000	52.696766	-0.485241	50.441907
11.670000	53.259611	-0.484287	50.600358
11.680000	53.582037	-0.404485	52.181088
11.690000	53.581699	-0.686176	51.705901
11.700000	53.582037	-0.605420	51.231698
11.710000	53.500879	-0.404485	50.759299
11.720000	53.662176	-0.163808	50.599373
11.730000	53.581867	-0.444227	50.285422
11.740000	53.703011	-0.323729	49.810400
11.750000	53.864140	-0.445499	47.597671
11.760000	53.582546	-0.244882	47.597015
11.770000	53.421247	-0.325001	48.703054
11.780000	53.582546	-0.244246	46.017757
11.790000	53.380585	-0.244882	46.017267
11.800000	53.541883	-0.324365	46.491307
11.810000	53.502237	-0.244246	46.018087
11.820000	52.898388	-0.164444	46.016777
11.830000	52.898560	-0.085914	45.702170
11.840000	52.737598	-0.205458	46.965345
11.850000	53.180321	-0.285896	47.913915
11.860000	53.300785	-0.607010	46.490486
11.870000	53.380924	-0.687448	48.071873
11.880000	53.863459	-0.485241	46.648936
11.890000	53.742657	-0.606374	47.755301
11.900000	53.743166	-0.847051	47.912442
11.910000	53.864140	-0.967549	47.912443
11.920000	54.065422	-0.967867	47.913260
11.930000	53.864140	-0.886793	48.071384
11.940000	54.185717	-1.249240	46.490815
11.950000	53.864140	-0.968185	46.490652
11.960000	53.702501	-1.088364	45.226001
11.970000	53.703011	-1.330313	46.966001
11.980000	53.622532	-1.169120	45.542572
11.990000	53.944107	-0.766295	44.119473
12.000000	53.823475	-1.007927	44.120619
12.010000	53.180151	-0.847687	44.910904
12.020000	52.978868	-0.687130	43.330336
12.030000	52.617136	-0.486831	44.753764
12.040000	52.778605	-0.566950	44.594167
12.050000	52.898897	-0.768840	45.069189
12.060000	52.938883	-0.848323	44.752291
12.070000	52.818419	-0.968821	44.436536
12.080000	52.899408	-1.088682	44.278578
12.090000	53.501898	-1.046714	45.543719
12.100000	53.622869	-1.047986	44.435061
12.110000	53.501898	-1.449539	45.226492
12.120000	53.783998	-1.288345	46.174570
12.130000	53.864479	-1.488644	45.067387
12.140000	54.105406	-1.287709	44.435718
12.150000	53.783998	-0.806037	45.226655
12.160000	53.139488	-0.726236	46.490160
12.170000	53.703011	-0.885839	46.173752
12.180000	54.426983	-0.484605	45.383631
12.190000	53.823475	0.037763	46.173588
12.200000	54.105917	0.840232	46.013992
12.210000	54.387508	1.242420	47.436764
12.220000	54.106087	1.845226	48.543127
12.230000	53.221832	2.084631	48.227211
12.240000	52.338600	2.644514	49.175289
12.250000	52.017363	3.003781	49.806305
12.260000	51.775753	3.406287	52.652340
12.270000	52.500067	3.166246	53.124415
12.280000	52.942278	3.166882	53.282701
12.290000	53.264025	2.725906	52.648900
12.300000	53.303501	2.525607	53.438856
12.310000	53.303841	2.163796	52.176337
12.320000	53.263006	1.681806	52.176337
12.330000	53.062063	1.320950	53.284832
12.340000	52.901104	0.637707	51.071282
12.350000	53.342978	0.316592	51.229242
12.360000	53.181849	0.598601	49.332100
12.370000	52.739128	0.236154	50.597080
12.380000	52.457706	-0.045537	48.385333
12.390000	52.417042	-0.166670	46.962561
12.400000	52.457367	-0.166034	46.805259
12.410000	52.900595	-0.246472	45.540443
12.420000	52.538185	0.276214	45.857343
12.430000	52.417212	-0.166670	46.330892
12.440000	52.377396	-0.004841	46.331874
12.450000	52.457876	-0.126928	45.856852
12.460000	52.578848	0.155081	45.224690
12.470000	52.498199	0.234882	45.381829
12.480000	52.538692	0.315320	45.382813
12.490000	52.699654	0.556951	44.750978
12.500000	52.981245	0.637707	45.540443
12.510000	52.901276	0.676812	44.749832
12.520000	52.861290	0.436135	45.224527
12.530000	52.901613	0.597965	46.172769
12.540000	53.223022	0.437090	47.278971
12.550000	53.182188	0.276532	46.487211
12.560000	53.584925	0.075597	47.752846
12.570000	53.624229	-0.245200	47.751698
12.580000	53.946487	-0.445499	47.595051
12.590000	54.067289	-0.525618	46.961742
12.600000	53.825342	-0.927807	48.700596
12.610000	54.388866	-1.208862	49.649166
12.620000	54.710443	-1.370055	50.280345
12.630000	54.991867	-1.529976	49.646545
12.640000	54.991697	-1.409161	51.071120
12.650000	54.870554	-1.810395	50.122714
12.660000	54.750597	-1.931211	49.648675
12.670000	54.951712	-1.852045	50.596753
12.680000	55.031681	-1.931211	49.016023
12.690000	54.830400	-1.930575	49.490716
12.700000	54.427664	-1.609778	47.435782
12.710000	54.387339	-1.688626	46.488522
12.720000	54.347864	-1.408525	46.962234
12.730000	54.347692	-1.368783	46.329417
12.740000	54.307709	-1.288981	46.013991
12.750000	54.226891	-0.765659	46.329908
12.760000	54.388189	-0.766295	43.801592
12.770000	54.227400	-0.524982	45.065912
12.780000	54.348034	-0.563770	45.224034
12.790000	54.107105	-0.765341	44.749340
12.800000	54.308048	-0.605420	45.698238
12.810000	54.549147	-0.605738	44.749340
12.820000	55.111990	-0.684904	46.330399
12.830000	55.072685	-0.645162	43.957583
12.840000	54.991697	-0.604466	45.539461
12.850000	55.032022	-0.765659	46.804603
12.860000	55.153505	-0.806991	47.593904
12.870000	55.595884	-0.967867	46.645333
12.880000	55.676704	-1.209816	46.172115
12.890000	55.556240	-1.130014	46.171623
12.900000	55.395111	-1.129378	46.487868
12.910000	55.193829	-1.612640	45.855868
12.920000	54.671307	-2.014192	46.803949
12.930000	54.630814	-2.013875	46.805094
12.940000	54.308388	-2.052662	47.912442
12.950000	54.549656	-2.254552	46.645660
12.960000	54.469515	-2.173478	46.803948
12.970000	54.388527	-2.294293	45.855870
12.980000	53.905823	-2.775329	47.595215
12.990000	53.785358	-2.454215	47.280609
13.000000	53.704878	-2.293657	48.227703
13.010000	53.704540	-2.332127	47.437584
13.020000	53.785017	-2.251053	47.437420
13.030000	53.583395	-1.848547	46.489341
13.040000	53.341787	-1.969362	45.224035
13.050000	53.180830	-1.728685	46.963053
13.060000	53.341787	-1.446995	45.539625
13.070000	53.140507	-1.044488	44.432439
13.080000	53.623381	-0.723055	44.433587
13.090000	53.583057	-0.402259	43.800935
13.100000	53.341448	-0.000706	43.009668
13.110000	53.462252	0.120427	43.642813
13.120000	53.542561	0.400210	44.434244
13.130000	53.703859	0.239971	45.856525
13.140000	53.986132	0.321044	45.382486
13.150000	54.066441	0.119155	46.804440
13.160000	54.388189	-0.283987	47.120848
13.170000	54.469175	-0.404167	47.594231
13.180000	54.670969	-0.927489	48.383859
13.190000	54.670797	-1.167848	48.384189
13.200000	54.911558	-1.047032	48.858227
13.210000	55.032360	-1.087092	48.700270
13.220000	54.790585	-0.724328	48.066797
13.230000	54.267044	-0.242338	48.384679
13.240000	53.462252	-0.201642	47.277004
13.250000	52.778435	-0.202596	46.487539
13.260000	52.657631	-0.604784	46.012190
13.270000	52.255234	-0.603830	46.171786
13.280000	52.376377	-1.086774	45.223873
13.290000	52.215588	-1.529022	44.276121
13.300000	51.893841	-1.892105	44.592530
13.310000	51.854876	-2.092404	45.858327
13.320000	51.331165	-2.334353	43.171066
13.330000	51.372339	-2.255824	44.118656
13.340000	51.131920	-2.256460	42.855315
13.350000	50.769508	-2.096856	42.381110
13.360000	50.447252	-2.137234	43.487475
13.370000	50.246140	-2.137552	42.696700
13.380000	49.844084	-2.177294	42.539397
13.390000	49.642462	-1.976041	43.646909
13.400000	49.723280	-1.895921	41.591319
13.410000	49.843405	-1.774470	42.222662
13.420000	50.165321	-1.775424	41.749112
13.430000	50.930298	-1.612958	42.063393
13.440000	50.930128	-1.412341	43.644616
13.450000	50.849480	-1.492461	44.751144
13.460000	50.849310	-1.491825	45.698730
13.470000	50.728676	-1.090272	46.806078
13.480000	50.889805	-1.049894	47.120683
13.490000	51.371830	-0.929079	48.227049
13.500000	51.573454	-0.727508	46.962234
13.510000	51.613947	-0.406393	47.435618
13.520000	51.412325	-0.325637	46.013500
13.530000	51.090069	-0.043628	44.592038
13.540000	51.009251	0.118201	43.959877
13.550000	50.687332	-0.083370	44.275793
13.560000	50.485710	0.399256	43.170412
13.570000	49.881691	0.036809	42.380618
13.580000	49.479126	0.237744	41.274584
13.590000	49.076729	-0.042674	40.641437
13.600000	48.593346	-0.202596	42.222822
13.610000	48.231445	0.118201	41.590989
13.620000	48.352077	0.280348	41.273764
13.630000	48.150455	0.118201	42.855805
13.640000	48.351398	-0.241701	42.538905
13.650000	48.310564	-0.963732	45.384943
13.660000	48.390703	-0.961506	47.121993
13.670000	48.430859	-1.564630	47.912605
13.680000	48.511168	-1.803717	49.649822
13.690000	48.712112	-1.682901	49.650149
13.700000	48.390364	-2.003380	49.650969
13.710000	48.350719	-2.205269	53.443775
13.720000	48.431709	-2.084454	52.179615
13.730000	48.954569	-2.365509	53.128022
13.740000	49.236670	-2.485688	52.336754
13.750000	49.196007	-2.364872	52.336918
13.760000	49.598063	-2.485688	50.124190
13.770000	49.075880	-2.365191	50.124516
13.780000	48.834105	-2.365191	49.967378
13.790000	48.632141	-2.002426	49.019626
13.800000	47.867844	-1.922942	48.702401
13.810000	48.591648	-1.562086	47.596197
13.820000	48.511677	-1.361469	47.596527
13.830000	49.035387	-1.160851	46.331876
13.840000	49.518091	-1.201865	47.595542
13.850000	49.478277	-1.162441	47.594887
13.860000	49.800364	-1.283575	48.069909
13.870000	49.881691	-1.405345	47.120030
13.880000	49.801382	-1.527114	48.068270
13.890000	50.606514	-1.647294	48.068763
13.900000	51.049404	-2.011330	49.016350
13.910000	51.734072	-2.211948	50.595935
13.920000	52.056158	-2.453897	49.806469
13.930000	52.821136	-2.694256	51.386546
13.940000	52.659838	-2.493956	51.703119
13.950000	53.062233	-2.614772	51.069481
13.960000	52.860781	-2.974038	52.177977
13.970000	52.135958	-3.375273	52.652017
13.980000	51.734241	-3.374637	52.178305
13.990000	51.854366	-3.416605	53.443120
14.000000	51.090237	-3.576208	52.335608
14.010000	50.968925	-3.534558	52.179452
14.020000	51.169868	-3.252231	50.599211
14.030000	50.927582	-3.532650	49.176767
14.040000	50.847612	-3.412788	49.967215
14.050000	50.364567	-3.693525	49.809255
14.060000	50.123129	-3.532650	49.335542
14.070000	49.922016	-3.371457	47.597673
14.080000	49.962341	-3.411516	48.071384
14.090000	50.364227	-3.452212	47.755959
14.100000	50.324244	-3.452212	46.489997
14.110000	50.243933	-3.692889	47.122979
14.120000	50.042820	-3.977124	46.648612
14.130000	50.204456	-3.855355	45.857999
14.140000	50.042820	-3.573982	46.806570
14.150000	50.123470	-3.615314	44.594168
14.160000	50.042820	-3.212489	46.807389
14.170000	50.485880	-3.334259	45.384453
14.180000	50.606853	-3.334259	44.277269
14.190000	50.446404	-3.053204	44.594496
14.200000	50.285446	-2.892965	43.487804
14.210000	50.164642	-2.653560	43.013927
14.220000	49.641443	-1.969998	43.803229
14.230000	49.359510	-1.728367	42.381438
14.240000	49.038612	-1.569718	41.590336
14.250000	48.637403	-1.369101	41.748785
14.260000	48.154699	-1.007927	42.065031
14.270000	47.874126	-0.287168	43.329352
14.280000	47.552889	-0.085914	43.171066
14.290000	47.592533	0.556315	44.277104
14.300000	47.472578	0.515301	45.698730
14.310000	48.157417	0.115021	46.645989
14.320000	49.002363	0.115975	46.804278
14.330000	49.444574	-0.285578	48.383367
14.340000	49.806986	0.315956	50.912833
14.350000	50.611776	0.235836	50.437649
14.360000	50.611609	0.317228	52.175190
14.370000	51.175470	-0.286214	52.806204
14.380000	51.296106	-0.848959	54.544732
14.390000	51.818966	-0.686812	53.438530
14.400000	52.301331	-0.887111	52.806370
14.410000	51.938919	-1.008245	52.490616
14.420000	52.139183	-0.646752	52.805550
14.430000	52.179680	-0.524982	51.225803
14.440000	52.018890	-0.766295	50.436009
14.450000	52.138845	-0.767250	48.697321
14.460000	51.455196	-0.566632	48.223609
14.470000	51.093124	-0.889019	47.432995
14.480000	51.293728	-0.848005	45.538971
14.490000	50.649895	-0.084324	43.640847
14.500000	50.650234	-0.648024	43.008686
14.510000	50.408457	-0.888701	42.220367
14.520000	50.287313	-0.848959	41.429101
14.530000	50.367622	-0.887747	41.113347
14.540000	50.166340	-1.209498	42.219384
14.550000	49.763264	-1.167530	42.378326
14.560000	49.883900	-1.126834	43.011797
14.570000	49.198893	-1.527114	43.327058
14.580000	47.265013	-1.321091	45.540608
14.590000	43.073982	-1.150357	46.964364
14.600000	43.679359	-1.475924	47.756122
14.610000	44.121910	-1.475924	48.385170
14.620000	47.182837	-0.675999	46.962234
14.630000	45.086643	-0.307828	44.590564
14.640000	47.301094	-1.515983	46.171622
14.650000	52.136806	-2.090496	45.537494
14.660000	46.493416	-0.665823	46.800670
14.670000	47.180630	-1.473698	49.173159
14.680000	44.360123	1.179156	47.593575
14.690000	55.882063	-2.295565	45.374784
14.700000	38.432080	1.437960	43.962169
14.710000	49.798326	-2.681853	52.175683
14.720000	44.801825	-2.672630	44.906480
14.730000	47.583536	-1.638707	50.120585
14.740000	46.576611	-1.115703	49.173815
14.750000	47.378178	-0.710971	50.752910
14.760000	51.891296	-3.251277	49.958203
14.770000	53.785017	-1.850455	52.170114
14.780000	53.021568	-2.498091	51.854033
14.790000	55.115726	-3.221076	55.170998
14.800000	51.770491	-2.210675	56.437125
14.810000	46.854298	-1.841232	61.179646
14.820000	44.238979	-1.922624	63.868705
14.830000	46.494944	-1.082322	63.708287
14.840000	48.870354	-1.284847	63.548693
14.850000	49.757153	-1.407253	62.285515
14.860000	49.595514	-2.089860	59.755070
14.870000	49.152456	-1.726459	60.389358
14.880000	47.501188	-1.605008	57.702756
14.890000	46.896152	-0.840691	53.910440
14.900000	46.090509	-0.718921	51.064894
14.910000	44.963802	-1.439362	47.272744
14.920000	45.043602	-1.641251	47.431029
14.930000	43.996351	-1.399620	43.007864
14.940000	40.453060	-1.756979	39.531795
14.950000	35.700541	-1.790360	37.638423
14.960000	31.270961	-2.630662	33.531830
14.970000	28.010788	-2.670722	29.741317
14.980000	23.178300	-2.265353	25.159867
14.990000	20.523675	-2.307957	20.420621
