BioWare Version 5.4.9.0 Export
Device:	ISO Leg Press (NEW) 9281CA (SN<616902)	ISO Leg Press (NEW) 9281CA (SN<616902)	ISO Leg Press (NEW) 9281CA (SN<616902)
Samples (#):	1500	1500	1500
Rate (Hz):	100.000000	100.000000	100.000000
Contact period start (sample #):	0	0	0
Contact period end (sample #):	1499	1499	1499
Contact period start time (s):	0.000000	0.000000	0.000000
Contact period end time (s):	14.990000	14.990000	14.990000
First sample time (s):	0.000000	0.000000	0.000000
Normalized force (N):	800.000000	800.000000	800.000000
Normalized length (m):	1.000000	1.000000	1.000000
File Information
Date	Oct 13, 2024  11:28:42
Name	
ID	
Classification	
Description	
abs time (s)	Fx	Fy	Fz
	N	N	N
0.000000	46.801561	8.812302	135.017282
0.010000	46.720572	8.932800	135.649606
0.020000	46.720572	9.255822	136.281112
0.030000	46.599598	8.974450	136.439889
0.040000	46.317837	9.175703	136.122826
0.050000	46.398315	8.572261	134.227323
0.060000	46.398315	8.411068	134.859811
0.070000	46.559614	8.210451	135.018921
0.080000	46.318514	7.849277	133.438186
0.090000	46.358839	7.647387	132.648396
0.100000	46.117571	7.325636	132.807009
0.110000	46.036922	7.204185	133.122271
0.120000	45.835979	7.043945	132.016235
0.130000	45.795485	6.843646	131.859095
0.140000	46.117231	6.923766	133.282195
0.150000	46.077248	6.522213	132.490438
0.160000	45.714836	6.884024	131.701465
0.170000	45.392920	6.842374	130.437140
0.180000	45.513723	6.965098	130.120895
0.190000	45.714836	7.083687	129.963591
0.200000	45.916290	7.002931	130.436974
0.210000	46.157726	7.324682	130.911508
0.220000	45.957123	7.404802	129.804650
0.230000	45.755840	7.766930	129.963265
0.240000	45.715855	7.927488	129.489880
0.250000	45.474756	7.765976	128.858538
0.260000	45.474756	7.967548	129.174617
0.270000	45.635714	7.806672	128.858867
0.280000	45.716194	7.766294	128.067925
0.290000	45.353952	7.806990	129.807108
0.300000	45.313627	7.846414	131.230210
0.310000	45.112686	8.369100	130.437794
0.320000	45.152670	8.288662	130.596246
0.330000	45.192654	8.128423	129.964740
0.340000	45.233318	8.007607	131.387185
0.350000	45.152842	8.088363	131.703102
0.360000	44.831093	7.966912	132.809304
0.370000	44.871078	8.046395	131.544814
0.380000	44.589315	7.966594	130.437960
0.390000	44.629980	7.845460	132.650853
0.400000	44.589485	7.684903	132.492893
0.410000	44.710459	7.604147	131.384729
0.420000	44.750614	7.764386	131.702611
0.430000	44.347878	7.483331	131.386040
0.440000	43.905327	7.805400	132.176813
0.450000	43.945992	7.483649	132.651672
0.460000	43.784523	7.403848	131.544650
0.470000	43.945482	7.525935	132.809464
0.480000	43.985636	7.645479	133.440973
0.490000	44.065947	7.444862	133.599095
0.500000	43.864834	7.646115	132.807664
0.510000	43.784523	7.767566	133.757707
0.520000	43.502762	7.687447	133.123908
0.530000	43.864153	7.848640	133.441791
0.540000	43.502251	7.768839	133.282358
0.550000	43.984108	7.648023	132.018199
0.560000	44.105082	7.768839	133.600239
0.570000	44.185732	7.889336	132.652162
0.580000	44.265871	7.969774	132.809630
0.590000	44.385996	7.770429	131.229225
0.600000	44.345840	7.689037	130.438452
0.610000	44.305687	7.529116	131.545800
0.620000	44.264853	7.770429	131.386202
0.630000	43.943106	7.769475	130.912814
0.640000	44.143539	7.890926	131.701465
0.650000	43.902950	8.010788	131.860567
0.660000	44.184032	7.810170	131.702281
0.670000	43.781637	7.810489	132.966115
0.680000	43.942766	7.769793	134.388067
0.690000	44.143707	7.972000	135.337127
0.700000	44.264853	7.770747	136.283572
0.710000	44.143539	7.891562	137.706507
0.720000	44.103046	7.449632	138.496462
0.730000	44.144049	7.568858	137.706014
0.740000	43.781809	7.488738	138.020948
0.750000	44.224527	7.530388	138.338504
0.760000	44.465796	7.571401	138.653275
0.770000	44.587109	7.330089	138.336375
0.780000	44.425301	7.289711	139.127640
0.790000	43.902102	7.489692	137.705524
0.800000	43.661682	7.770747	139.918581
0.810000	43.621696	7.366650	140.866498
0.820000	43.581713	7.848958	142.604201
0.830000	43.339766	7.849277	143.868855
0.840000	42.936689	8.050530	145.764356
0.850000	42.212038	8.251783	150.503600
0.860000	41.367260	8.371644	155.403750
0.870000	40.924372	8.611685	159.195413
0.880000	40.602795	8.854588	162.196626
0.890000	40.320692	8.813574	168.833008
0.900000	39.757677	9.375366	175.469885
0.910000	39.113504	9.898052	183.211157
0.920000	38.832420	10.095489	190.478726
0.930000	38.188248	10.055111	201.381954
0.940000	38.189266	10.535193	208.491063
0.950000	38.068462	10.251594	215.759939
0.960000	37.746716	10.009645	226.504061
0.970000	37.826855	10.046843	235.509499
0.980000	37.666576	10.164478	247.677059
0.990000	36.862633	9.560082	257.159145
1.000000	36.177286	9.319405	270.909073
1.010000	35.050747	9.118470	282.131168
1.020000	32.998442	9.601097	293.669180
1.030000	32.312585	10.245552	307.102854
1.040000	32.392046	10.605454	318.956963
1.050000	31.586745	11.568480	330.969013
1.060000	30.740609	11.044204	342.981556
1.070000	29.894983	11.122098	352.465118
1.080000	29.252169	10.956452	363.688030
1.090000	28.647980	10.956452	373.329727
1.100000	28.767426	12.480316	382.178513
1.110000	28.082758	13.966982	392.610504
1.120000	27.356748	14.649907	403.040829
1.130000	27.114461	16.337190	409.994774
1.140000	26.389469	16.175997	418.845852
1.150000	25.384242	15.732159	426.590405
1.160000	24.980828	15.570329	432.754223
1.170000	24.255497	16.052319	441.921055
1.180000	23.329222	16.614110	449.188442
1.190000	23.691293	16.934271	456.299706
1.200000	22.845158	17.656939	462.145626
1.210000	22.644215	17.575866	470.206440
1.220000	22.724015	16.931728	475.418068
1.230000	23.206890	17.614970	479.050640
1.240000	23.328372	17.131072	482.683994
1.250000	23.850554	17.411172	486.000145
1.260000	23.890200	18.338591	488.526184
1.270000	24.373075	18.379923	489.944836
1.280000	25.177867	17.777435	492.629002
1.290000	26.144126	17.778708	492.623932
1.300000	26.948918	17.901750	492.623100
1.310000	27.953975	17.501788	493.094692
1.320000	28.879401	17.823538	493.724709
1.330000	28.195922	19.027242	494.355732
1.340000	27.271174	19.426249	493.093056
1.350000	26.144976	18.701039	491.038769
1.360000	25.984016	18.902610	490.089703
1.370000	26.386582	18.420618	488.036076
1.380000	27.231699	18.622190	488.824562
1.390000	27.674419	18.944895	486.927097
1.400000	27.674419	19.548336	487.716564
1.410000	27.674759	19.025969	485.818604
1.420000	27.876041	19.108315	485.186275
1.430000	27.836567	19.149964	482.657787
1.440000	27.877061	18.907697	481.392334
1.450000	28.118498	18.948393	481.392494
1.460000	27.796242	19.311793	479.021805
1.470000	27.957370	19.271098	477.599033
1.480000	27.997865	19.190342	477.600178
1.490000	28.119008	19.148057	475.545567
1.500000	28.280136	19.348673	472.542053
1.510000	28.240320	19.106406	472.226463
1.520000	28.038868	19.227222	469.382408
1.530000	27.596148	19.750545	468.435478
1.540000	27.314216	20.073248	466.856873
1.550000	27.394865	20.354622	464.168133
1.560000	27.878249	20.797187	462.114841
1.570000	27.999562	20.594980	460.375168
1.580000	28.603071	20.676373	458.794765
1.590000	28.724215	20.355258	455.949543
1.600000	28.603920	20.235079	456.264969
1.610000	28.724894	20.276728	454.050762
1.620000	28.765219	20.317424	453.419418
1.630000	28.886022	19.916826	451.677948
1.640000	29.368557	19.636089	452.153622
1.650000	29.529856	19.476486	451.994194
1.660000	29.369067	19.395730	451.203747
1.670000	29.208279	19.554380	452.468071
1.680000	29.208279	19.391913	450.413128
1.690000	29.127969	19.352809	450.729706
1.700000	28.926686	19.311793	451.520153
1.710000	28.967181	19.434200	449.938438
1.720000	29.328743	19.836070	450.411003
1.730000	29.328573	20.117126	451.991413
1.740000	29.368557	20.196926	453.097290
1.750000	29.006486	20.077701	453.097618
1.760000	28.442622	19.432609	452.782188
1.770000	28.201355	19.673605	454.996723
1.780000	27.879268	19.553107	455.154678
1.790000	27.959068	19.473305	455.312969
1.800000	27.636811	19.433882	457.366909
1.810000	27.596996	19.472987	456.894508
1.820000	27.555823	19.352491	458.317772
1.830000	26.791355	18.990679	459.582096
1.840000	26.108047	19.351218	459.741524
1.850000	25.625001	19.471398	462.114670
1.860000	25.182281	19.392231	463.221527
1.870000	24.538447	19.673287	464.646919
1.880000	24.457798	19.392231	466.542747
1.890000	24.055402	19.151555	468.125282
1.900000	24.055572	19.032012	469.864792
1.910000	23.089822	18.590717	473.186184
1.920000	21.963792	18.513778	475.717121
1.930000	21.078011	18.717257	477.773697
1.940000	20.394362	18.761451	480.938595
1.950000	19.871672	18.282959	483.628971
1.960000	19.066541	17.643592	485.211830
1.970000	18.343246	17.285280	486.477467
1.980000	17.257202	16.846212	488.059181
1.990000	16.331606	16.928558	490.750042
2.000000	15.567138	17.050964	493.911346
2.010000	15.044108	17.533908	500.076149
2.020000	14.561233	17.335834	504.028069
2.030000	13.998388	17.256669	508.928192
2.040000	12.871509	17.297365	513.038399
2.050000	11.785295	17.298001	517.782074
2.060000	10.577937	17.621341	522.523468
2.070000	10.537442	17.983788	525.368034
2.080000	10.899005	18.104922	529.002853
2.090000	10.577427	18.868920	533.270523
2.100000	9.893779	18.869239	538.485443
2.110000	8.968353	19.029160	544.175888
2.120000	8.364504	19.067312	547.493179
2.130000	8.484629	19.670117	552.866547
2.140000	8.323671	20.190577	557.922203
2.150000	8.806546	21.031516	563.292313
2.160000	9.852775	21.431795	568.663536
2.170000	11.662963	21.791698	572.452103
2.180000	12.668698	22.029831	575.135078
2.190000	13.312871	21.744642	582.878166
2.200000	13.996860	21.579950	591.410210
2.210000	14.276584	21.338319	599.628975
2.220000	14.114777	21.255973	608.955879
2.230000	13.912136	21.173627	619.705582
2.240000	13.307438	21.692180	633.617386
2.250000	12.220035	23.369603	655.117752
2.260000	8.317049	25.484825	679.787300
2.270000	-0.091924	27.717999	706.360344
2.280000	-11.721424	30.793065	743.213326
2.290000	-26.972658	33.749860	781.020447
2.300000	-42.185774	37.270991	820.253433
2.310000	-54.783911	41.793298	863.276138
2.320000	-66.616390	45.630773	908.352112
2.330000	-77.888401	46.940980	955.478928
2.340000	-83.485867	48.092222	1000.231125
2.350000	-89.846268	48.485188	1045.771652
2.360000	-97.254261	48.761789	1080.092560
2.370000	-101.644367	49.002149	1104.927765
2.380000	-105.469082	49.286065	1116.486221
2.390000	-110.702438	47.205817	1114.771133
2.400000	-114.244377	45.684178	1107.046219
2.410000	-123.656708	44.158091	1106.435532
2.420000	-133.308270	43.632859	1108.035431
2.430000	-143.569115	42.752817	1117.540283
2.440000	-149.844795	43.761308	1130.833496
2.450000	-148.318230	47.186110	1144.279984
2.460000	-146.710014	48.522396	1157.248627
2.470000	-148.239632	50.381684	1170.218109
2.480000	-156.530006	50.952382	1184.137772
2.490000	-168.560707	50.072020	1200.272964
2.500000	-175.200668	48.835889	1211.349564
2.510000	-178.541664	48.196839	1222.899384
2.520000	-177.896805	48.162505	1234.604156
2.530000	-178.419502	47.967927	1241.725433
2.540000	-182.806381	47.289454	1251.850983
2.550000	-187.916214	45.409188	1260.234222
2.560000	-195.882126	44.245546	1266.250275
2.570000	-195.599350	44.572067	1262.619019
2.580000	-191.414085	43.897408	1258.354156
2.590000	-189.525795	44.268443	1263.414551
2.600000	-193.229538	45.117649	1273.060318
2.610000	-203.690987	45.559898	1286.343567
2.620000	-214.312202	43.786771	1301.523987
2.630000	-217.128807	42.056884	1313.697403
2.640000	-211.536438	42.060381	1326.183517
2.650000	-206.827805	42.742671	1335.190445
2.660000	-207.997215	43.824287	1340.245117
2.670000	-215.562431	44.019181	1345.773163
2.680000	-223.849411	42.887326	1353.513931
2.690000	-223.204216	41.882017	1358.720520
2.700000	-213.908112	41.922395	1357.601349
2.710000	-208.036018	43.052655	1365.020813
2.720000	-206.269035	45.263259	1373.864365
2.730000	-212.950005	47.270703	1385.403366
2.740000	-221.961800	45.661633	1389.514542
2.750000	-226.387482	42.245418	1387.622681
2.760000	-222.039223	39.151586	1387.464722
2.770000	-217.290443	38.028001	1386.040955
2.780000	-219.343597	39.317870	1384.143494
2.790000	-224.335175	42.973806	1396.469452
2.800000	-230.171188	45.630793	1406.896851
2.810000	-231.779930	46.674892	1414.004196
2.820000	-226.186028	44.948506	1421.111481
2.830000	-221.115501	42.778276	1425.689178
2.840000	-221.355743	41.125011	1431.846115
2.850000	-225.016953	42.288018	1434.998901
2.860000	-228.599213	44.170831	1437.042542
2.870000	-227.473015	44.649005	1435.606659
2.880000	-220.713104	43.324806	1434.482727
2.890000	-213.709717	41.837821	1435.255676
2.900000	-211.575569	39.708289	1436.031219
2.910000	-211.092865	38.063930	1437.599152
2.920000	-211.938835	39.267950	1436.796417
2.930000	-209.725906	42.081360	1437.254913
2.940000	-204.857338	44.772365	1437.080414
2.950000	-201.032455	43.965763	1435.797119
2.960000	-196.766205	43.274887	1438.618225
2.970000	-192.742073	43.144211	1441.284851
2.980000	-191.496605	42.536317	1443.797913
2.990000	-188.722534	44.138711	1448.367584
3.000000	-185.905418	45.420309	1449.937012
3.010000	-184.860039	46.656121	1449.930939
3.020000	-184.295670	46.086378	1452.448303
3.030000	-183.048325	44.994269	1451.331573
3.040000	-181.360466	44.863594	1449.258972
3.050000	-178.787857	45.969049	1451.603271
3.060000	-170.901909	48.156441	1458.212128
3.070000	-161.845711	50.911029	1470.996124
3.080000	-164.947632	50.720904	1474.637054
3.090000	-172.192970	49.563941	1479.391663
3.100000	-175.974304	48.640656	1487.457062
3.110000	-179.675499	49.764559	1494.731323
3.120000	-182.653572	51.132318	1498.531677
3.130000	-179.595871	52.140172	1495.054962
3.140000	-175.411972	52.507071	1497.110870
3.150000	-178.951866	51.951959	1501.543732
3.160000	-187.319328	51.999332	1507.088959
3.170000	-192.187042	51.483962	1512.315796
3.180000	-193.151947	51.771375	1521.967163
3.190000	-193.394569	51.900460	1528.773468
3.200000	-193.476402	52.388812	1534.790192
3.210000	-195.728294	52.429505	1537.646362
3.220000	-200.876083	51.624810	1537.501160
3.230000	-207.112282	50.901827	1539.410645
3.240000	-210.614746	50.143234	1538.946716
3.250000	-211.783134	50.547648	1537.218353
3.260000	-214.318657	51.392085	1542.125061
3.270000	-216.171890	52.033042	1544.026489
3.280000	-217.901932	51.023916	1546.874664
3.290000	-220.034210	50.334946	1551.779205
3.300000	-221.563652	48.963370	1551.307983
3.310000	-219.671455	51.046165	1554.470428
3.320000	-219.471535	53.177605	1557.633820
3.330000	-222.932816	54.467789	1560.486877
3.340000	-225.187935	55.352600	1568.549500
3.350000	-227.683128	54.388304	1577.403870
3.360000	-230.256424	52.697839	1582.940277
3.370000	-228.484520	51.893780	1587.052582
3.380000	-226.111496	52.136047	1591.952393
3.390000	-225.307037	52.739808	1594.796143
3.400000	-226.032707	53.102254	1598.270752
3.410000	-225.228088	53.821104	1604.588104
3.420000	-225.227913	53.778184	1612.328400
3.430000	-224.424149	52.327763	1616.280487
3.440000	-223.619179	50.842369	1619.127808
3.450000	-224.947174	51.687442	1618.181885
3.460000	-228.409988	52.611995	1621.033813
3.470000	-231.308250	53.255178	1627.045227
3.480000	-232.677765	53.257725	1628.945831
3.490000	-234.970657	51.812389	1627.056702
3.500000	-236.258667	51.451850	1625.010956
3.510000	-236.176140	51.533877	1623.437256
3.520000	-238.832298	50.891649	1624.079437
3.530000	-243.581413	51.139005	1629.620911
3.540000	-246.237228	52.069602	1633.266235
3.550000	-249.215973	52.636483	1630.749542
3.560000	-251.670166	51.355205	1629.811951
3.570000	-251.025658	50.075198	1628.558136
3.580000	-252.353981	50.074563	1625.564575
3.590000	-255.612793	49.675873	1628.419006
3.600000	-258.712181	50.925044	1629.850647
3.610000	-261.408157	53.056799	1626.540009
3.620000	-263.944183	53.745449	1628.602020
3.630000	-265.594254	54.311375	1631.928131
3.640000	-265.592224	54.832789	1636.200684
3.650000	-267.603523	54.797180	1637.472778
3.660000	-270.460793	53.717475	1642.063721
3.670000	-272.995964	53.115941	1649.815491
3.680000	-274.283638	53.599520	1655.512787
3.690000	-274.282104	54.563499	1654.413788
3.700000	-275.971153	54.684633	1654.107361
3.710000	-280.114227	54.363836	1659.966248
3.720000	-285.143738	53.882484	1665.507202
3.730000	-287.799042	53.444688	1665.673706
3.740000	-290.253418	53.566776	1661.098511
3.750000	-290.857086	53.210371	1658.890503
3.760000	-289.085861	52.492792	1659.523193
3.770000	-287.717728	51.414039	1662.050659
3.780000	-287.799042	49.772538	1660.785675
3.790000	-289.006577	48.284601	1659.994904
3.800000	-290.172760	47.841081	1657.623383
3.810000	-288.362228	48.279197	1659.673279
3.820000	-287.636734	48.159335	1657.458405
3.830000	-289.045364	48.523686	1653.984619
3.840000	-289.608566	49.289914	1654.776581
3.850000	-290.775421	49.131581	1654.935181
3.860000	-292.507172	49.094385	1657.147095
3.870000	-291.502960	48.937326	1656.829865
3.880000	-290.016724	48.057281	1650.664398
3.890000	-290.138718	46.932110	1641.336334
3.900000	-289.938614	46.610358	1634.219025
3.910000	-287.807190	46.610993	1625.043518
3.920000	-285.072098	45.848903	1613.180237
3.930000	-280.808052	45.286791	1610.480194
3.940000	-276.061134	44.763471	1612.366211
3.950000	-273.003952	44.039851	1615.358734
3.960000	-270.630066	41.786958	1616.617310
3.970000	-270.790337	39.775382	1615.509491
3.980000	-272.761665	39.493692	1609.817902
3.990000	-271.594620	39.974409	1604.120758
4.000000	-268.616562	40.012560	1593.204407
4.010000	-265.962273	40.891015	1579.119232
4.020000	-260.287727	41.842590	1555.687347
4.030000	-243.744240	42.312498	1533.805359
4.040000	-207.806801	41.242012	1558.387787
4.050000	-198.516289	39.753129	1558.208191
4.060000	-202.301361	40.047860	1552.518219
4.070000	-205.314323	40.441144	1546.513336
4.080000	-210.220329	40.113986	1543.989319
4.090000	-216.092590	39.624365	1544.937073
4.100000	-211.823296	37.892569	1541.606628
4.110000	-204.255524	34.759634	1538.900879
4.120000	-199.385773	34.677288	1533.500977
4.130000	-194.840485	39.370647	1522.082092
4.140000	-180.633438	44.061146	1508.103333
4.150000	-149.010040	47.464641	1527.450302
4.160000	-121.445652	48.537035	1548.895615
4.170000	-124.784435	47.478624	1535.787827
4.180000	-135.768402	45.184718	1529.167206
4.190000	-145.427094	44.222649	1527.126846
4.200000	-157.217216	47.070392	1535.834869
4.210000	-166.432678	48.387599	1543.909210
4.220000	-159.351532	48.340542	1544.703430
4.230000	-150.942551	48.613329	1551.975739
4.240000	-156.012581	48.244520	1570.166046
4.250000	-166.315781	46.749588	1581.407959
4.260000	-175.169853	47.262412	1597.389435
4.270000	-184.827187	48.906139	1607.523682
4.280000	-185.473740	50.991477	1613.390411
4.290000	-184.427505	52.155755	1613.565735
4.300000	-187.728172	52.635836	1614.687195
4.310000	-196.218140	51.947505	1621.656036
4.320000	-203.903641	51.302415	1630.993286
4.330000	-210.703712	52.541725	1638.275238
4.340000	-208.974510	53.378847	1646.181366
4.350000	-204.106796	54.704000	1652.665375
4.360000	-203.787254	55.825677	1658.677124
4.370000	-205.880058	55.300766	1654.410400
4.380000	-210.427727	53.605532	1652.833466
4.390000	-214.934563	52.633601	1648.409637
4.400000	-214.452530	52.705770	1640.660339
4.410000	-210.513290	54.223591	1632.117157
4.420000	-207.176384	56.738766	1628.309937
4.430000	-204.484314	60.449706	1621.804779
4.440000	-196.439285	63.507598	1616.078796
4.450000	-187.185875	64.477613	1609.561859
4.460000	-175.635498	64.769464	1604.789673
4.470000	-168.030632	64.600327	1599.559235
4.480000	-169.643608	65.607861	1591.337357
4.490000	-172.986298	67.173059	1584.855164
4.500000	-174.678741	68.174231	1583.111237
4.510000	-173.392265	68.888636	1588.320786
4.520000	-169.609741	68.356089	1591.317200
4.530000	-163.533134	66.779442	1588.623047
4.540000	-159.710625	66.044058	1586.875198
4.550000	-162.688019	67.002949	1588.299118
4.560000	-168.364609	68.291859	1584.827301
4.570000	-170.778641	68.856510	1584.514801
4.580000	-171.261856	68.465136	1582.628189
4.590000	-170.455879	67.145386	1577.579056
4.600000	-170.775246	65.822145	1577.586441
4.610000	-173.510689	65.746475	1581.861816
4.620000	-177.977547	66.836361	1579.975159
4.630000	-180.390221	66.922518	1577.611008
4.640000	-180.109810	66.809019	1573.665344
4.650000	-178.417374	66.008457	1569.559875
4.660000	-177.208153	64.803164	1566.083984
4.670000	-177.287270	62.755980	1557.864777
4.680000	-178.413300	62.072739	1550.910797
4.690000	-177.487534	61.228302	1543.638809
4.700000	-172.941734	60.910686	1533.993210
4.710000	-167.749374	60.472570	1526.721558
4.720000	-167.023376	58.592300	1517.874542
4.730000	-168.913528	56.507923	1510.769531
4.740000	-171.003616	54.985014	1502.397552
4.750000	-171.847710	54.186995	1492.919083
4.760000	-169.431976	54.313536	1485.964996
4.770000	-165.648262	54.523376	1481.535599
4.780000	-161.584831	54.451519	1484.688889
4.790000	-159.652481	54.052195	1487.684998
4.800000	-159.853249	54.734163	1489.736649
4.810000	-161.179207	55.332836	1488.469711
4.820000	-159.850533	56.370256	1490.206757
4.830000	-158.320915	57.132034	1489.094025
4.840000	-157.999001	57.008675	1490.513184
4.850000	-158.000191	57.971064	1489.720108
4.860000	-158.602173	58.049593	1486.553574
4.870000	-157.474442	57.205156	1482.598221
4.880000	-154.214615	56.763226	1479.593079
4.890000	-152.202290	56.159470	1472.475449
4.900000	-149.868393	56.680244	1473.576096
4.910000	-149.265224	57.521500	1474.203339
4.920000	-151.157253	57.480165	1471.351410
4.930000	-150.996292	57.555836	1471.187531
4.940000	-149.105453	58.073429	1471.654846
4.950000	-146.812050	58.831711	1471.491013
4.960000	-143.593735	60.436007	1467.846130
4.970000	-141.581924	61.120844	1464.204742
4.980000	-140.376774	61.681995	1461.037735
4.990000	-140.055195	62.076553	1461.349396
5.000000	-138.284821	62.434229	1459.448318
5.010000	-136.152721	62.548052	1453.439011
5.020000	-135.266254	61.938246	1450.909210
5.030000	-135.629345	61.653690	1454.384140
5.040000	-137.319920	62.414513	1458.967682
5.050000	-138.406132	63.060244	1459.287415
5.060000	-139.936771	62.221207	1456.134308
5.070000	-141.224266	62.621487	1456.613907
5.080000	-140.620754	62.983618	1461.358566
5.090000	-141.426571	63.948555	1461.835861
5.100000	-142.754730	64.027084	1459.155151
5.110000	-144.123722	64.309731	1455.365463
5.120000	-144.928856	65.075314	1452.839951
5.130000	-145.169785	65.235870	1450.945740
5.140000	-144.283493	65.118559	1446.836517
5.150000	-143.156616	64.801260	1444.148438
5.160000	-143.076813	64.524340	1444.937088
5.170000	-142.715080	64.567575	1445.885513
5.180000	-143.117310	64.609549	1444.778320
5.190000	-142.593769	64.326902	1445.885178
5.200000	-142.874851	63.521250	1447.310394
5.210000	-143.639488	62.516895	1443.045868
5.220000	-143.719463	62.116615	1438.147003
5.230000	-144.322975	61.873709	1434.040283
5.240000	-143.840603	61.593929	1430.088516
5.250000	-143.035984	63.083139	1426.609818
5.260000	-141.506538	62.364605	1424.079071
5.270000	-140.219891	61.328140	1421.864365
5.280000	-139.536579	61.049309	1419.967712
5.290000	-138.892746	60.969185	1417.439896
5.300000	-138.288555	60.447140	1411.909515
5.310000	-138.891392	60.764753	1407.169968
5.320000	-140.017586	60.601656	1405.591370
5.330000	-140.017246	60.921497	1401.480865
5.340000	-139.373581	61.001297	1399.423798
5.350000	-137.602871	60.801634	1396.575317
5.360000	-135.792850	60.600061	1397.679337
5.370000	-133.378819	61.159950	1400.833603
5.380000	-131.608616	60.312647	1402.251312
5.390000	-130.443108	60.387678	1404.143829
5.400000	-130.322136	59.820162	1401.138519
5.410000	-129.678131	59.614458	1399.082123
5.420000	-127.626507	60.010925	1395.757797
5.430000	-125.896458	60.730724	1392.750824
5.440000	-125.253475	61.254366	1391.483093
5.450000	-124.248421	61.817112	1391.165375
5.460000	-123.845848	61.617449	1388.635742
5.470000	-123.644226	61.535738	1385.792633
5.480000	-124.167263	61.574846	1387.531998
5.490000	-125.455265	61.814255	1387.059128
5.500000	-126.179237	62.053970	1384.849167
5.510000	-126.702099	61.612997	1380.585449
5.520000	-127.105518	60.649336	1375.687714
5.530000	-127.627529	60.207724	1373.159561
5.540000	-128.592430	59.764523	1374.898911
5.550000	-128.994144	58.360836	1373.794037
5.560000	-128.873512	58.003159	1374.740463
5.570000	-128.793205	58.082958	1373.160538
5.580000	-128.471451	58.164354	1372.530197
5.590000	-128.310665	58.404711	1371.580627
5.600000	-128.591915	58.443817	1375.373779
5.610000	-130.281982	58.042582	1375.691986
5.620000	-131.046452	58.522985	1375.378021
5.630000	-131.006123	59.406530	1372.851379
5.640000	-130.323490	60.169888	1374.431442
5.650000	-130.203709	60.652834	1375.380844
5.660000	-130.444805	61.057568	1370.323853
5.670000	-130.525631	61.420013	1368.110138
5.680000	-129.881283	61.421925	1368.424423
5.690000	-127.909458	61.545916	1368.421494
5.700000	-127.266136	62.268904	1368.262222
5.710000	-126.622131	62.067970	1365.259857
5.720000	-126.782581	62.025997	1365.733398
5.730000	-128.230698	61.382494	1368.897308
5.740000	-130.000557	60.737728	1369.689087
5.750000	-130.884808	60.334265	1375.849319
5.760000	-130.804840	61.136414	1383.433090
5.770000	-130.362457	61.782143	1387.857559
5.780000	-130.080700	61.743675	1386.592926
5.790000	-129.316738	61.102715	1380.269653
5.800000	-129.315380	60.501184	1375.683762
5.810000	-128.950935	59.658651	1369.831650
5.820000	-128.022789	58.818991	1357.968536
5.830000	-125.524204	58.229540	1344.202072
5.840000	-119.404385	57.130764	1328.366135
5.850000	-105.478424	56.168060	1314.725327
5.860000	-82.902222	54.246156	1306.756989
5.870000	-59.722345	52.482583	1303.693504
5.880000	-39.930235	52.022221	1309.182564
5.890000	-42.900155	52.761414	1291.318840
5.900000	-50.096165	51.817457	1270.455872
5.910000	-51.018705	51.165051	1261.909096
5.920000	-49.084318	50.833758	1258.734032
5.930000	-47.311909	47.744383	1254.299561
5.940000	-42.200037	46.945728	1247.176048
5.950000	-34.596536	49.929556	1244.158943
5.960000	-30.975480	51.589817	1248.100739
5.970000	-32.625560	50.514881	1251.416573
5.980000	-31.458526	48.916305	1259.948120
5.990000	-33.108094	47.709738	1266.274803
6.000000	-37.773680	46.453575	1264.228539
6.010000	-39.302955	46.331166	1265.022118
6.020000	-39.346505	48.945553	1266.442741
6.030000	-41.118407	51.073812	1270.552773
6.040000	-40.876969	50.435397	1272.920372
6.050000	-39.548638	50.356232	1276.710350
6.060000	-37.575454	50.115556	1280.813332
6.070000	-38.579831	48.829825	1282.864174
6.080000	-38.298239	49.674262	1285.858200
6.090000	-36.647652	51.365998	1285.848045
6.100000	-35.439444	51.854346	1283.784111
6.110000	-33.142647	50.936788	1276.659782
6.120000	-27.986713	49.019642	1270.636196
6.130000	-21.102261	46.859589	1263.346546
6.140000	-15.184237	45.388190	1261.745491
6.150000	-10.191640	46.004031	1259.040249
6.160000	-4.756153	47.704989	1253.805866
6.170000	1.121036	48.438151	1241.779016
6.180000	7.402489	48.524951	1234.336256
6.190000	12.395086	48.207652	1228.475760
6.200000	15.053786	46.845298	1224.198280
6.210000	16.142377	46.127723	1218.974359
6.220000	16.626951	46.371577	1215.173862
6.230000	17.914958	47.458601	1214.220228
6.240000	20.129749	47.702459	1215.634665
6.250000	22.785902	48.186354	1218.471817
6.260000	24.356689	47.342872	1217.837205
6.270000	24.236905	46.055553	1217.201446
6.280000	23.715404	45.492806	1216.725444
6.290000	22.991260	45.572927	1218.621446
6.300000	23.272343	45.856207	1217.042183
6.310000	24.277908	46.176687	1216.567157
6.320000	24.560181	46.414817	1220.990012
6.330000	21.664456	46.087661	1225.100971
6.340000	19.733296	45.726487	1229.685048
6.350000	20.537748	46.208478	1232.370187
6.360000	22.750162	46.732435	1232.369534
6.370000	24.156256	47.497388	1234.741533
6.380000	23.471249	48.662302	1236.325207
6.390000	20.453364	49.099463	1242.179230
6.400000	16.469049	48.769760	1251.509536
6.410000	11.478489	47.839163	1261.001946
6.420000	7.291703	46.191302	1267.653061
6.430000	1.494314	44.662988	1271.614784
6.440000	2.779434	44.499885	1279.835676
6.450000	6.240549	44.848339	1287.423428
6.460000	5.312747	44.600348	1293.433558
6.470000	4.344619	44.989180	1298.024332
6.480000	1.767757	46.095272	1306.572578
6.490000	-3.185875	47.203590	1313.859901
6.500000	-11.398149	48.189188	1319.098370
6.510000	-21.580551	47.252545	1322.599190
6.520000	-28.264400	45.647605	1325.144840
6.530000	-30.882096	45.886059	1327.840775
6.540000	-30.078493	45.081044	1328.318306
6.550000	-28.027377	45.599596	1325.790634
6.560000	-27.746634	44.958004	1319.787865
6.570000	-27.628887	45.121742	1320.421326
6.580000	-30.043601	45.601823	1322.475441
6.590000	-31.292302	45.957909	1325.795685
6.600000	-33.587064	45.791628	1326.905968
6.610000	-33.908812	45.785268	1326.273483
6.620000	-32.784988	46.789306	1325.797806
6.630000	-32.787026	48.553211	1325.480095
6.640000	-32.023578	50.037014	1326.424896
6.650000	-31.342986	51.201612	1327.844070
6.660000	-32.793309	50.995905	1327.215183
6.670000	-34.122319	50.305984	1327.377384
6.680000	-34.646028	50.019841	1323.588493
6.690000	-34.927791	50.215375	1322.483444
6.700000	-34.969303	50.857915	1321.853401
6.710000	-34.527772	50.734239	1321.063766
6.720000	-33.885296	50.935173	1325.488411
6.730000	-35.816796	50.766981	1326.596901
6.740000	-36.501464	49.755949	1326.601219
6.750000	-37.226796	48.383417	1331.343910
6.760000	-38.554788	48.251474	1331.030121
6.770000	-38.837229	48.004755	1334.193382
6.780000	-39.481571	48.359880	1331.354362
6.790000	-40.729085	48.516623	1329.617958
6.800000	-42.421185	49.320051	1330.727272
6.810000	-43.267150	50.043671	1333.892494
6.820000	-43.549930	50.365421	1329.784256
6.830000	-43.267490	51.490910	1326.941154
6.840000	-42.742423	52.056522	1321.252731
6.850000	-41.373087	51.786596	1317.139908
6.860000	-37.950090	51.960829	1308.914604
6.870000	-34.887126	52.137602	1303.220406
6.880000	-32.509508	50.791154	1299.105301
6.890000	-30.492604	49.326115	1290.409233
6.900000	-29.281003	47.980934	1282.184086
6.910000	-24.927654	47.352382	1277.744839
6.920000	-19.608217	46.483149	1271.564938
6.930000	-13.927557	45.699128	1262.699951
6.940000	-8.489862	44.196570	1251.465092
6.950000	-3.293944	41.605404	1241.336601
6.960000	0.774585	40.577522	1235.474960
6.970000	3.395338	40.388352	1235.936577
6.980000	5.773294	39.194190	1236.084677
6.990000	7.827128	38.080467	1232.443611
7.000000	9.560911	37.685591	1230.225588
7.010000	10.971419	37.932947	1229.902971
7.020000	11.616442	38.742412	1230.214802
7.030000	11.777909	39.994125	1229.263613
7.040000	11.939377	40.481204	1227.997162
7.050000	11.537660	40.361659	1227.519526
7.060000	12.866331	40.444006	1227.200340
7.070000	14.396285	40.606789	1223.405562
7.080000	15.240892	41.409259	1220.399926
7.090000	15.885065	42.169123	1218.502948
7.100000	14.115372	42.042900	1215.185649
7.110000	13.954583	42.282941	1211.234547
7.120000	13.874614	42.442545	1208.864408
7.130000	13.673840	41.312921	1203.493962
7.140000	14.880349	40.870671	1201.753636
7.150000	15.927767	41.749442	1197.328986
7.160000	15.887103	42.267359	1193.852253
7.170000	15.847967	42.424737	1191.166458
7.180000	15.205153	42.859032	1189.111846
7.190000	15.929973	42.697205	1190.533643
7.200000	15.204982	42.936926	1193.380659
7.210000	15.766300	42.898775	1191.644419
7.220000	17.896706	43.940968	1194.647106
7.230000	19.141163	45.541135	1199.233471
7.240000	18.131692	47.985420	1205.875429
7.250000	13.180098	49.377654	1206.992151
7.260000	8.592784	49.848833	1210.476725
7.270000	7.302400	49.762033	1215.855011
7.280000	5.409695	50.758124	1222.340803
7.290000	4.882930	51.919224	1229.775661
7.300000	2.909916	54.195002	1231.204969
7.310000	1.782698	55.551627	1234.056240
7.320000	-0.433791	56.431353	1237.853785
7.330000	-4.095680	56.623705	1240.231020
7.340000	-5.584460	57.018577	1241.815342
7.350000	-6.913301	57.212835	1243.082180
7.360000	-8.363964	57.973335	1246.719097
7.370000	-8.408024	59.221230	1252.884560
7.380000	-10.020834	59.384968	1251.779999
7.390000	-10.505578	58.945265	1250.045551
7.400000	-11.270554	58.942723	1249.731102
7.410000	-12.316954	57.778761	1248.310680
7.420000	-12.720708	57.097106	1251.945053
7.430000	-11.876271	57.582596	1258.423660
7.440000	-12.479780	58.030569	1259.689228
7.450000	-11.073686	59.042242	1264.904819
7.460000	-11.233116	60.003995	1265.067680
7.470000	-13.447058	59.202798	1269.817791
7.480000	-16.263830	59.000589	1271.248577
7.490000	-18.515720	58.879140	1271.571198
7.500000	-20.447051	58.640686	1270.472839
7.510000	-21.694903	57.883049	1269.687355
7.520000	-20.689847	57.206483	1270.007195
7.530000	-21.293865	55.967174	1267.797737
7.540000	-22.017329	55.005737	1266.059868
7.550000	-21.694903	53.043444	1268.587635
7.560000	-22.338397	51.646121	1266.846336
7.570000	-21.333001	50.490745	1268.108215
7.580000	-20.287281	49.374476	1267.313679
7.590000	-19.361516	49.584316	1268.099060
7.600000	-18.998765	49.471449	1267.461994
7.610000	-17.834109	48.959896	1266.509014
7.620000	-17.633336	49.006314	1264.136032
7.630000	-18.599425	50.375343	1258.922241
7.640000	-17.352422	51.823861	1255.599873
7.650000	-16.266037	53.995679	1254.017509
7.660000	-16.145573	55.164410	1253.697342
7.670000	-15.300457	55.690273	1253.059292
7.680000	-13.084647	55.329419	1250.207687
7.690000	-10.748713	54.529177	1249.726131
7.700000	-8.372963	54.250981	1250.033161
7.710000	-6.037878	53.409091	1251.288822
7.720000	-4.146531	53.608118	1255.075199
7.730000	-5.956549	53.278735	1255.550056
7.740000	-8.329412	51.826404	1252.549004
7.750000	-7.685239	50.374392	1252.074478
7.760000	-7.122394	48.403829	1252.229328
7.770000	-7.404496	46.994102	1253.334225
7.780000	-7.848235	46.469825	1255.547935
7.790000	-6.642066	46.630382	1252.701088
7.800000	-5.999590	46.549626	1256.173725
7.810000	-5.799156	46.066682	1260.438129
7.820000	-5.235292	46.224696	1260.753559
7.830000	-5.475372	46.503208	1259.806293
7.840000	-5.958926	46.981698	1260.437805
7.850000	-8.253688	49.227911	1264.866043
7.860000	-9.744506	50.754954	1265.659760
7.870000	-9.142524	52.246391	1265.343521
7.880000	-8.539015	52.689273	1264.077881
7.890000	-9.022060	52.288040	1268.979683
7.900000	-9.503917	52.327783	1272.929962
7.910000	-9.302973	52.651442	1271.034782
7.920000	-9.624211	53.253927	1269.770615
7.930000	-10.548958	54.498964	1267.878048
7.940000	-9.905294	55.183162	1268.826122
7.950000	-9.905973	53.418620	1266.931602
7.960000	-10.671799	52.093782	1263.299530
7.970000	-10.309558	50.569285	1262.509079
7.980000	-9.909369	50.329242	1263.930546
7.990000	-11.156881	52.575455	1264.408016
8.000000	-10.917821	54.262102	1264.411285
8.010000	-11.725330	55.346580	1268.207260
8.020000	-13.657510	55.060437	1270.898773
8.030000	-15.428392	54.413755	1269.640339
8.040000	-14.704588	53.126754	1268.377811
8.050000	-15.307589	52.681961	1266.801327
8.060000	-15.266924	53.404309	1270.752914
8.070000	-15.185935	53.644670	1271.384747
8.080000	-15.145272	53.685999	1275.179520
8.090000	-15.427543	52.521721	1276.919361
8.100000	-16.271302	51.680466	1276.606716
8.110000	-16.672509	50.033241	1281.350880
8.120000	-16.108645	49.631690	1279.615131
8.130000	-15.626279	49.592583	1275.823521
8.140000	-14.500419	49.955028	1272.190136
8.150000	-15.184747	50.880540	1265.555538
8.160000	-15.949724	51.604480	1267.770229
8.170000	-17.719078	51.601297	1265.406075
8.180000	-19.728851	51.760267	1263.516781
8.190000	-21.097337	51.603524	1262.891487
8.200000	-22.989532	52.576090	1264.163170
8.210000	-23.754169	54.030328	1264.801273
8.220000	-24.559470	54.398818	1265.595810
8.230000	-25.967602	53.561379	1264.810661
8.240000	-27.938409	52.399961	1264.659401
8.250000	-29.224208	50.755917	1261.659164
8.260000	-29.102725	49.834541	1259.291748
8.270000	-28.740145	49.440305	1257.079674
8.280000	-29.061553	49.729310	1257.710197
8.290000	-30.026793	49.334754	1256.286613
8.300000	-30.387846	48.819384	1254.384895
8.310000	-29.578640	48.101486	1250.115585
8.320000	-28.448705	47.185198	1242.208488
8.330000	-24.623481	46.069246	1230.982452
8.340000	-20.920078	46.037138	1219.596821
8.350000	-19.268982	46.281948	1215.009800
8.360000	-18.344065	46.442507	1212.003021
8.370000	-19.068548	45.953836	1212.161308
8.380000	-20.075302	43.497469	1212.003349
8.390000	-21.806199	42.887030	1212.953228
8.400000	-21.605086	42.923274	1215.640984
8.410000	-20.761497	43.806180	1216.428650
8.420000	-19.354725	45.330361	1218.635986
8.430000	-19.918927	46.657106	1221.162510
8.440000	-20.001275	47.382318	1220.686180
8.450000	-18.874057	46.739771	1218.156223
8.460000	-18.229374	46.014240	1214.205776
8.470000	-17.747008	45.290619	1211.045784
8.480000	-17.546913	46.054619	1208.835339
8.490000	-18.352385	47.179790	1205.992725
8.500000	-19.680206	48.462978	1205.204243
8.510000	-20.765741	48.539917	1206.628159
8.520000	-20.361649	47.895144	1205.838032
8.530000	-20.038203	47.290112	1201.101067
8.540000	-19.876396	47.004287	1197.469212
8.550000	-19.794559	47.566079	1195.574192
8.560000	-20.437034	48.448352	1193.836479
8.570000	-21.924456	49.813248	1193.681461
8.580000	-22.444940	50.573747	1193.679993
8.590000	-22.362082	51.134904	1196.839329
8.600000	-21.113212	51.578740	1194.783413
8.610000	-19.665266	52.022896	1193.990837
8.620000	-17.975881	53.030752	1197.779072
8.630000	-17.091119	54.519644	1199.514328
8.640000	-16.528614	55.810463	1197.617519
8.650000	-15.040683	55.412094	1190.980133
8.660000	-13.552411	54.651274	1190.662418
8.670000	-13.712860	54.249086	1190.504292
8.680000	-14.840249	54.449701	1191.297035
8.690000	-15.565071	53.807793	1187.663811
8.700000	-16.209753	53.405602	1186.717396
8.710000	-17.536726	53.723854	1188.775928
8.720000	-17.496063	53.358227	1187.196175
8.730000	-16.328859	52.953493	1180.090797
8.740000	-15.765335	52.509977	1169.818104
8.750000	-16.650946	52.429222	1165.398197
8.760000	-17.738179	52.991650	1155.920361
8.770000	-16.531840	53.556620	1144.388077
8.780000	-14.157618	53.437393	1127.640072
8.790000	-12.950770	53.277157	1109.155636
8.800000	-11.099408	52.114466	1088.146202
8.810000	-8.121508	51.393389	1059.233883
8.820000	-4.862864	50.353422	1029.214058
8.830000	-4.019615	48.911587	999.512146
8.840000	-1.043752	47.711700	969.024193
8.850000	3.945789	47.394720	937.105614
8.860000	4.430532	46.108671	906.300274
8.870000	4.995753	44.744411	869.491375
8.880000	9.785879	42.897524	832.048485
8.890000	14.372174	40.409679	790.659435
8.900000	18.960508	37.598815	749.268719
8.910000	20.166168	35.148804	714.988316
8.920000	18.475765	32.378633	687.031143
8.930000	14.532964	29.202141	660.813473
8.940000	11.635203	26.029781	631.906582
8.950000	12.963704	23.458321	602.522888
8.960000	16.464295	21.611115	576.773842
8.970000	22.097669	19.923514	552.758759
8.980000	26.241755	18.435576	530.011585
8.990000	27.006392	17.707821	505.368275
9.000000	25.759218	16.019585	482.305511
9.010000	23.545445	14.929383	460.509537
9.020000	22.013964	14.044568	439.501713
9.030000	22.174244	14.042978	420.230286
9.040000	23.662854	14.442940	400.482529
9.050000	24.829377	14.882644	381.525391
9.060000	26.518932	14.880100	363.672966
9.070000	28.047358	13.795304	345.502338
9.080000	29.253017	12.748979	329.072018
9.090000	30.339402	12.507984	311.692987
9.100000	31.426126	12.304823	293.206602
9.110000	32.029125	12.583651	278.514830
9.120000	32.189744	12.581424	264.613493
9.130000	32.431691	12.178600	250.080006
9.140000	32.914566	12.016454	236.018263
9.150000	32.955401	11.291560	224.329334
9.160000	33.479619	10.446805	214.851179
9.170000	34.969587	10.122510	206.637007
9.180000	36.135435	10.324399	199.054174
9.190000	38.750923	10.765376	194.789297
9.200000	40.722578	10.202312	192.895924
9.210000	41.567696	9.596962	187.524681
9.220000	43.660664	8.831055	182.786907
9.230000	44.948839	7.301149	177.732729
9.240000	45.190617	6.135279	172.518133
9.250000	47.403030	5.692077	167.620275
9.260000	48.369461	4.969092	164.619722
9.270000	47.324421	4.605056	158.616970
9.280000	46.078096	4.563406	154.666534
9.290000	45.515760	4.444180	150.718390
9.300000	45.474247	4.368195	147.086170
9.310000	46.480661	4.809489	144.242590
9.320000	46.762934	5.330902	143.612719
9.330000	47.125685	5.933708	143.139832
9.340000	47.245808	6.176611	142.352165
9.350000	48.573971	6.660828	140.771597
9.360000	49.498377	6.862081	136.979122
9.370000	49.738796	7.788545	135.082472
9.380000	49.939911	8.473378	129.392691
9.390000	49.616804	8.917217	126.074085
9.400000	49.979046	9.000517	124.652788
9.410000	50.099850	9.164572	121.648958
9.420000	49.898228	9.204950	119.121620
9.430000	49.013466	9.887557	117.699341
9.440000	48.369970	10.530423	115.961308
9.450000	48.651394	10.933248	112.167521
9.460000	48.973141	11.014004	112.642050
9.470000	48.691547	11.135773	110.905653
9.480000	48.489756	10.452212	110.115042
9.490000	48.731873	10.211216	110.747366
9.500000	49.174084	9.366779	109.167294
9.510000	49.857903	9.447535	108.536112
9.520000	49.454659	8.483555	108.852356
9.530000	48.932306	7.920810	109.802074
9.540000	48.369291	7.597787	109.329020
9.550000	47.644129	6.913907	110.752445
9.560000	47.120760	6.352116	111.859959
9.570000	47.081116	5.870762	113.915709
9.580000	46.397295	5.589389	112.810003
9.590000	45.633337	5.146823	115.500700
9.600000	44.265701	5.146187	115.817108
9.610000	43.380600	4.825390	116.134668
9.620000	42.173073	4.864496	117.874826
9.630000	41.690706	5.104854	118.664622
9.640000	41.529068	5.466983	120.562583
9.650000	40.804247	6.312056	119.773772
9.660000	40.200228	6.513945	121.986660
9.670000	39.757338	7.560271	121.355817
9.680000	39.394247	7.883929	122.621445
9.690000	39.273785	7.522119	125.308704
9.700000	39.355110	7.764704	123.096304
9.710000	39.676517	7.887428	125.150583
9.720000	39.957092	8.130013	125.626427
9.730000	40.399982	8.331584	124.361774
9.740000	40.319332	8.010788	124.518587
9.750000	40.641079	8.050848	125.311493
9.760000	40.722240	7.407982	124.362104
9.770000	40.761375	7.087186	125.310343
9.780000	41.486876	6.886569	122.464472
9.790000	41.808113	6.725693	122.781536
9.800000	41.567186	6.805813	121.042191
9.810000	41.205454	6.524122	119.934353
9.820000	40.842873	6.202689	120.883577
9.830000	41.286102	5.962330	120.725946
9.840000	41.647495	5.921952	118.829298
9.850000	41.366241	6.002072	117.089956
9.860000	41.486198	6.324459	117.406523
9.870000	41.002813	5.923860	116.772560
9.880000	40.640402	6.767661	116.615423
9.890000	40.600586	6.404896	115.193797
9.900000	40.479612	6.526030	116.772562
9.910000	40.398964	6.485334	116.456974
9.920000	40.438438	7.127881	117.091590
9.930000	40.679537	7.490328	116.458447
9.940000	40.276463	7.653111	119.620073
9.950000	39.310711	7.732913	119.622694
9.960000	39.029459	7.250287	121.677956
9.970000	39.392889	7.411162	122.310122
9.980000	39.674650	7.130107	124.682934
9.990000	39.715487	6.526666	122.785301
10.000000	39.393738	6.687541	124.998690
10.010000	39.232779	6.808039	125.632488
10.020000	39.313597	6.527938	125.791431
10.030000	38.951696	5.844377	127.056244
10.040000	38.992359	5.804635	126.740162
10.050000	38.991850	5.723879	125.950043
10.060000	38.991850	5.600837	125.950205
10.070000	38.307524	5.480976	126.897959
10.080000	38.024912	5.360160	126.899599
10.090000	38.105560	5.239027	127.688896
10.100000	38.025084	5.439008	125.634121
10.110000	37.583382	5.075607	125.159592
10.120000	37.623705	5.074335	125.950203
10.130000	37.060520	5.396722	126.739998
10.140000	36.698448	5.356662	124.211681
10.150000	36.818913	5.638035	125.950371
10.160000	37.262312	6.200781	124.052741
10.170000	37.785341	5.879348	123.419760
10.180000	38.791248	6.282491	124.367346
10.190000	39.353922	6.082191	124.209553
10.200000	39.514202	6.083145	122.628000
10.210000	40.238174	6.726329	123.734037
10.220000	41.042118	6.927900	124.208405
10.230000	41.122768	6.888795	123.418612
10.240000	41.968563	6.367063	123.100889
10.250000	42.572752	6.447818	121.994202
10.260000	43.096970	5.926086	119.780817
10.270000	42.292688	6.087280	118.357718
10.280000	41.850136	5.847875	116.777641
10.290000	41.971109	5.888571	115.827759
10.300000	41.971279	6.008114	115.195927
10.310000	42.052099	6.006524	113.614704
10.320000	42.011944	6.126386	113.298954
10.330000	42.172392	6.005252	113.139683
10.340000	42.372997	6.205233	114.089071
10.350000	42.090725	6.285671	114.245558
10.360000	41.968733	6.363564	114.719104
10.370000	41.928917	6.162947	116.299995
10.380000	41.888084	6.322550	117.249877
10.390000	42.371809	6.042131	117.722605
10.400000	42.049891	5.720381	117.091754
10.410000	41.566847	5.680003	119.305959
10.420000	41.084990	5.801772	116.934777
10.430000	41.206472	5.440280	118.357882
10.440000	41.569902	5.440598	118.516167
10.450000	41.691046	4.918866	118.675110
10.460000	41.449947	5.080378	119.624334
10.470000	41.249344	5.400856	120.099354
10.480000	41.087875	5.683183	118.993156
10.490000	41.168356	6.004616	118.676582
10.500000	41.248325	5.843423	119.466049
10.510000	40.684462	5.641851	119.307924
10.520000	41.006378	6.123523	118.833555
10.530000	41.287630	5.963602	119.465879
10.540000	41.488405	6.043722	118.991842
10.550000	41.568375	6.566408	119.150295
10.560000	41.689178	6.565772	118.516003
10.570000	41.769148	6.244975	116.303769
10.580000	41.930445	6.205233	117.566942
10.590000	42.011265	5.924178	116.461067
10.600000	42.132748	5.602746	116.303766
10.610000	41.971958	5.563004	115.197240
10.620000	41.890800	5.644714	115.196581
10.630000	41.488405	5.684455	113.774959
10.640000	41.166319	5.403401	114.090218
10.650000	41.730181	5.242207	113.615522
10.660000	41.650551	4.881351	112.983360
10.670000	41.327785	4.761489	112.192592
10.680000	41.609716	5.122346	112.824255
10.690000	41.609379	5.122346	112.666950
10.700000	41.931126	5.042544	113.141321
10.710000	41.850815	5.323599	113.299608
10.720000	42.172564	5.203101	115.513487
10.730000	42.011774	5.041590	116.777151
10.740000	41.891140	5.162724	116.461891
10.750000	41.730181	5.322963	117.569237
10.760000	41.810152	5.243797	117.885479
10.770000	41.569054	5.444414	116.935928
10.780000	41.528730	5.484474	116.461723
10.790000	41.086348	5.162087	115.987518
10.800000	41.046194	5.241571	114.882139
10.810000	41.005529	5.442506	113.614866
10.820000	41.045174	5.604336	114.090546
10.830000	40.482161	5.885391	114.880499
10.840000	40.602625	5.764257	114.722216
10.850000	40.723259	5.603064	116.145807
10.860000	40.361525	5.442506	115.987030
10.870000	40.643288	5.481294	115.196909
10.880000	40.803568	5.522308	117.251022
10.890000	40.884047	5.884119	115.988014
10.900000	40.924540	5.722607	116.620340
10.910000	41.085669	5.360796	117.409475
10.920000	41.045513	5.562050	117.410130
10.930000	40.804075	5.440916	116.463200
10.940000	40.804756	5.481294	116.619682
10.950000	40.764261	5.924496	117.252665
10.960000	41.166828	6.004616	115.829071
10.970000	40.804585	6.046584	114.881811
10.980000	40.804417	6.086008	114.406298
10.990000	40.724276	6.006206	114.722708
11.000000	40.845081	5.965828	114.722382
11.010000	40.642778	5.885391	113.773973
11.020000	40.683104	5.804953	114.405481
11.030000	40.723259	6.127340	112.982214
11.040000	40.924032	5.966146	111.876179
11.050000	41.004341	5.764893	111.401813
11.060000	41.125484	5.725469	111.243361
11.070000	41.246286	5.685410	112.981722
11.080000	41.608698	5.645350	111.875195
11.090000	41.970770	5.806861	112.508833
11.100000	42.493801	5.808133	111.717564
11.110000	42.534294	5.364295	113.299604
11.120000	42.736258	5.164632	112.825895
11.130000	42.454494	5.044452	111.244999
11.140000	42.615284	5.044770	112.034466
11.150000	42.776411	4.923955	110.926788
11.160000	42.816734	4.885167	109.979200
11.170000	43.017509	4.964015	109.187445
11.180000	42.293196	4.883895	109.346060
11.190000	42.172224	4.763079	109.030138
11.200000	42.654589	4.842563	108.080755
11.210000	43.137804	4.842881	108.871529
11.220000	42.896536	5.084830	107.605074
11.230000	43.258436	4.843835	107.765326
11.240000	42.815716	4.964015	107.922466
11.250000	43.499706	4.885167	107.132021
11.260000	43.781298	4.883895	106.973900
11.270000	43.862118	4.803775	107.922138
11.280000	43.941917	4.642900	107.922304
11.290000	44.143879	5.126162	108.554628
11.300000	43.942595	4.965923	109.502541
11.310000	43.902441	4.884849	109.819279
11.320000	43.902950	5.046360	108.554789
11.330000	43.661173	4.764033	107.291125
11.340000	43.500725	4.642900	107.606388
11.350000	43.057835	4.722065	106.975209
11.360000	42.977354	4.803457	107.922464
11.370000	42.976845	5.084194	106.340917
11.380000	43.137634	5.364931	107.290636
11.390000	43.137125	5.163996	108.081243
11.400000	43.177959	5.204056	108.396669
11.410000	43.137295	5.284175	108.240187
11.420000	42.775223	5.323281	109.819773
11.430000	42.936180	5.322645	109.346059
11.440000	42.975996	5.605290	110.294955
11.450000	42.975826	5.243479	109.819443
11.460000	43.257927	5.042544	109.978060
11.470000	43.097309	4.962425	109.661484
11.480000	43.419397	4.681688	109.187609
11.490000	43.097651	4.762443	109.820589
11.500000	43.258947	4.763079	110.768833
11.510000	43.097651	4.883577	108.712748
11.520000	43.339256	4.884213	109.503691
11.530000	43.500216	4.963378	108.555776
11.540000	43.821962	4.963696	109.028503
11.550000	43.620848	5.164632	109.661648
11.560000	43.861946	5.084512	108.397161
11.570000	43.339087	5.365885	108.714229
11.580000	43.741484	5.646940	108.713407
11.590000	43.942427	5.847557	108.080919
11.600000	43.902271	5.406263	108.397161
11.610000	44.103554	5.124890	108.080261
11.620000	44.103554	5.204374	109.345567
11.630000	43.942595	5.003756	107.922794
11.640000	43.862118	4.923637	108.238546
11.650000	43.902441	5.204692	107.131527
11.660000	43.701498	5.084830	105.550143
11.670000	43.902781	4.923319	105.866550
11.680000	44.225037	4.963696	105.235373
11.690000	44.265190	4.763079	105.233734
11.700000	44.345840	4.521766	106.340425
11.710000	44.546953	4.803457	104.918637
11.720000	44.587448	4.884531	105.549812
11.730000	44.385826	4.482979	104.759363
11.740000	44.989336	4.562462	103.495370
11.750000	45.029829	4.764033	104.601900
11.760000	44.989164	4.563098	105.075941
11.770000	44.989164	4.281725	106.024345
11.780000	44.827698	4.683278	103.969903
11.790000	44.908346	4.442601	104.758381
11.800000	45.069136	4.604748	103.494879
11.810000	44.948671	4.482979	103.652514
11.820000	44.908516	4.241348	102.228758
11.830000	44.385654	4.524629	101.754718
11.840000	44.828037	4.805047	101.597743
11.850000	44.747557	4.684868	100.964432
11.860000	44.667248	4.925545	101.438309
11.870000	44.868191	4.763397	99.700112
11.880000	44.989164	4.683596	100.016845
11.890000	45.231112	4.763079	100.173656
11.900000	45.270588	4.643218	101.598236
11.910000	45.069136	4.723655	100.489246
11.920000	45.309723	4.764033	100.490559
11.930000	45.310402	4.842563	100.015206
11.940000	45.189600	4.842881	101.121245
11.950000	45.350557	4.400632	101.912839
11.960000	45.309893	4.077928	103.019040
11.970000	45.350897	4.118942	102.071616
11.980000	45.431715	3.717071	101.754225
11.990000	45.310913	3.676694	101.595773
12.000000	45.109968	3.597210	102.229412
12.010000	45.271267	3.516454	99.700437
12.020000	45.230772	3.717708	100.806312
12.030000	45.070152	3.717389	101.121083
12.040000	45.231112	3.837887	100.015206
12.050000	45.431887	4.119260	100.173167
12.060000	45.270418	4.119896	100.804509
12.070000	45.391222	4.320831	99.065984
12.080000	45.552010	4.401269	97.959454
12.090000	45.954746	4.601250	99.539201
12.100000	46.195673	4.361527	98.908190
12.110000	46.115364	4.721747	98.590960
12.120000	46.397127	4.803775	98.749572
12.130000	46.639074	4.723655	99.065161
12.140000	46.558594	4.803457	97.800347
12.150000	46.639582	4.523038	98.274552
12.160000	46.438131	4.563416	98.433003
12.170000	46.679567	4.442283	97.325984
12.180000	46.558933	4.481706	96.377738
12.190000	46.397636	4.522720	96.061660
12.200000	46.718704	4.683278	96.060186
12.210000	46.598749	4.240393	97.167699
12.220000	46.960312	4.401587	95.428680
12.230000	46.718874	4.160274	94.478635
12.240000	46.759029	4.160274	96.059694
12.250000	46.557915	4.320195	96.217485
12.260000	46.920496	4.038504	96.376101
12.270000	47.000805	4.280135	94.637738
12.280000	46.880171	4.119578	94.953164
12.290000	46.840696	3.999080	95.745089
12.300000	46.719553	3.998762	95.586637
12.310000	46.800541	4.241030	95.903865
12.320000	46.961500	4.401269	96.061005
12.330000	46.478456	4.080472	94.321659
12.340000	46.881020	4.320513	93.214804
12.350000	46.559273	4.400632	94.479124
12.360000	46.720232	4.682960	94.162881
12.370000	46.719723	4.601886	94.636590
12.380000	46.719213	4.521130	93.214639
12.390000	46.880510	4.601568	93.846472
12.400000	46.840355	4.802185	94.162390
12.410000	46.759197	4.641310	95.743119
12.420000	46.880171	4.802185	94.162880
12.430000	46.840187	4.681688	94.004432
12.440000	47.082134	4.400632	92.898396
12.450000	47.122118	4.401269	92.423535
12.460000	47.082134	4.602204	93.688024
12.470000	47.162952	4.199697	91.792357
12.480000	46.961670	4.239121	92.265906
12.490000	47.001654	4.359619	93.055205
12.500000	47.122458	4.318923	92.898067
12.510000	47.202257	4.357710	94.321002
12.520000	47.484360	4.357074	95.269574
12.530000	47.041128	4.438148	96.691526
12.540000	46.961161	4.316697	96.533731
12.550000	47.403711	4.155503	94.637737
12.560000	47.162783	3.793057	96.692348
12.570000	47.041809	3.673195	96.533571
12.580000	47.203617	3.473850	96.060184
12.590000	46.882038	3.272279	95.585653
12.600000	46.922535	3.192796	93.372759
12.610000	47.043676	2.911105	93.846473
12.620000	47.083832	2.991860	94.321167
12.630000	47.245131	2.790925	94.322149
12.640000	46.922535	2.831621	93.214803
12.650000	47.123648	2.911741	93.847128
12.660000	46.842224	3.194386	94.637411
12.670000	47.122799	3.314565	96.060514
12.680000	47.323740	3.554924	94.795533
12.690000	47.403881	3.435381	95.269572
12.700000	47.563992	3.595938	97.009082
12.710000	47.323740	3.757131	97.166878
12.720000	47.404049	3.515500	96.850468
12.730000	47.444374	3.957430	94.637410
12.740000	47.082302	3.676694	95.110959
12.750000	47.162783	4.199697	95.428025
12.760000	47.244110	4.079200	94.795209
12.770000	46.962179	4.159638	94.480435
12.780000	47.324421	4.240711	94.953982
12.790000	47.283756	4.079836	95.587128
12.800000	47.243601	4.120214	96.377412
12.810000	47.163122	4.400951	94.796188
12.820000	47.163462	4.159956	95.903536
12.830000	47.324081	4.683596	95.902226
12.840000	47.766802	4.280135	96.375282
12.850000	47.645996	4.441010	95.268589
12.860000	47.685642	4.361527	94.161572
12.870000	47.605333	4.119578	94.637903
12.880000	47.686321	4.159320	94.004105
12.890000	47.766802	3.958702	94.320675
12.900000	47.766632	4.119578	94.006234
12.910000	47.806957	3.838205	93.214639
12.920000	48.048563	3.637906	93.846311
12.930000	48.290001	3.637906	92.107291
12.940000	48.491114	3.436335	91.474310
12.950000	48.612429	3.517408	92.580675
12.960000	48.249846	3.436971	91.633908
12.970000	48.612257	3.718662	91.474803
12.980000	48.853695	3.638224	91.790394
12.990000	49.296415	3.477985	92.265579
13.000000	49.135288	3.638860	90.367948
13.010000	49.457035	3.356215	91.632108
13.020000	49.617653	3.637588	89.893581
13.030000	49.698301	3.797827	90.208676
13.040000	49.899075	3.758085	89.735457
13.050000	49.738117	3.797827	90.682553
13.060000	49.818766	3.718025	89.735127
13.070000	49.980064	3.677648	90.525086
13.080000	50.020048	3.678284	90.050391
13.090000	49.658318	3.476394	91.315536
13.100000	49.779459	3.919915	89.734311
13.110000	49.658485	3.678284	90.208841
13.120000	49.215597	3.797827	88.470480
13.130000	49.578518	3.879219	89.576682
13.140000	49.538021	3.918643	88.943209
13.150000	49.537683	3.798781	89.101985
13.160000	49.699150	3.838523	87.996605
13.170000	49.175951	3.758403	88.469988
13.180000	49.215597	3.878583	89.734966
13.190000	49.094452	4.039140	90.840675
13.200000	49.296415	3.959657	90.208841
13.210000	49.175102	3.958702	89.893414
13.220000	49.134777	3.918007	90.841823
13.230000	49.134777	3.837569	90.841002
13.240000	49.255413	3.958066	90.683534
13.250000	49.134949	3.998762	90.051374
13.260000	49.134949	3.918007	90.525249
13.270000	49.014143	4.078564	90.051046
13.280000	49.175613	3.596892	91.157738
13.290000	49.136135	3.595620	90.684028
13.300000	49.216446	3.756813	91.001256
13.310000	49.256771	3.878265	90.367291
13.320000	49.175272	3.917688	91.158887
13.330000	49.497698	3.917688	88.945337
13.340000	49.054808	3.877311	89.893254
13.350000	49.296076	3.918007	89.260599
13.360000	49.175272	3.796555	89.102478
13.370000	49.095133	3.957748	88.469988
13.380000	48.974669	3.797191	88.785086
13.390000	49.417219	4.037868	88.943863
13.400000	49.377064	3.876993	87.363296
13.410000	49.537683	3.757449	88.785741
13.420000	49.215597	3.917370	87.203862
13.430000	49.135117	3.636316	88.785904
13.440000	49.497189	3.475122	87.836843
13.450000	49.537683	3.475122	87.679049
13.460000	49.779291	3.635998	88.152597
13.470000	49.698811	3.474486	88.784923
13.480000	49.899923	3.394367	87.363952
13.490000	50.020220	3.474804	86.887946
13.500000	49.980064	3.233809	87.993817
13.510000	49.778273	3.033828	87.679050
13.520000	50.141022	2.912377	87.994638
13.530000	49.979385	2.751183	88.311702
13.540000	49.979046	2.791243	88.309899
13.550000	50.019369	2.951482	89.733329
13.560000	49.939400	3.153690	89.101168
13.570000	49.456526	2.671700	88.944518
13.580000	49.658148	2.912695	89.101822
13.590000	49.658827	2.589672	87.678720
13.600000	49.778950	2.390963	88.153580
13.610000	49.860109	2.189074	88.312193
13.620000	49.457203	2.429433	90.209660
13.630000	49.336231	2.270147	90.683045
13.640000	49.899586	2.229769	90.050718
13.650000	50.060373	2.270465	89.892924
13.660000	50.100359	2.069848	89.576517
13.670000	49.939739	2.392235	88.785412
13.680000	50.220652	2.834165	89.259452
13.690000	49.979214	2.954027	89.733491
13.700000	50.180328	3.316155	88.785742
13.710000	50.059525	3.355261	88.785088
13.720000	50.180498	3.556514	86.888274
13.730000	50.060034	3.356215	88.152270
13.740000	50.220823	3.960293	87.837337
13.750000	50.060373	3.918325	86.414563
13.760000	50.382122	3.759357	86.413907
13.770000	50.180838	3.798145	86.098482
13.780000	50.583914	3.958702	87.520762
13.790000	50.422955	3.718025	88.153254
13.800000	50.583572	3.636952	88.944190
13.810000	50.744871	3.757767	88.311212
13.820000	50.744532	3.233809	89.893089
13.830000	50.744192	3.315201	87.836681
13.840000	50.623898	3.274823	89.733656
13.850000	50.704546	2.831939	88.152761
13.860000	50.422955	2.670428	90.682717
13.870000	50.825691	2.348359	89.260599
13.880000	50.584423	2.509552	88.784431
13.890000	50.705564	2.630686	86.257096
13.900000	50.665239	2.268239	86.413743
13.910000	50.423973	2.509552	86.729007
13.920000	50.504282	2.308617	86.571374
13.930000	50.223200	2.430069	86.413743
13.940000	50.665581	2.309253	86.887781
13.950000	51.148624	2.711123	85.148437
13.960000	51.067806	2.711123	85.780600
13.970000	50.704887	2.911741	85.622476
13.980000	50.785536	2.790925	85.465665
13.990000	50.745550	3.111722	84.358318
14.000000	51.027142	2.951482	84.830880
14.010000	50.866184	2.991860	84.041582
14.020000	50.865505	3.233173	85.622804
14.030000	50.745043	3.434108	84.831372
14.040000	50.744532	3.434427	86.096679
14.050000	50.503263	3.796237	85.307214
14.060000	50.543928	3.835343	85.938884
14.070000	50.906340	3.514546	87.045086
14.080000	51.067127	3.996536	86.253981
14.090000	50.946833	3.756495	86.096845
14.100000	50.785704	3.594984	87.045250
14.110000	50.584591	3.635362	86.570391
14.120000	50.986649	3.515500	86.729332
14.130000	50.624407	3.353989	87.204028
14.140000	50.906000	3.393413	86.729661
14.150000	50.945644	3.353353	87.045577
14.160000	50.704546	3.434108	88.627127
14.170000	50.584253	3.633771	86.886964
14.180000	50.503263	3.755223	87.361820
14.190000	50.503263	3.875403	87.678395
14.200000	50.664223	3.955840	88.151613
14.210000	50.783669	4.396816	88.943536
14.220000	50.906000	4.639402	87.992016
14.230000	50.905828	4.115762	89.100676
14.240000	51.026974	3.191523	87.678391
14.250000	50.945816	3.754905	87.362967
14.260000	50.664732	3.473214	87.204682
14.270000	50.785027	3.312657	87.679049
14.280000	50.463280	3.352717	88.627946
14.290000	50.181517	3.634408	88.312358
14.300000	50.704718	2.951482	90.367127
14.310000	50.704887	2.991542	88.628110
14.320000	50.785875	3.271961	91.947858
14.330000	50.584082	3.109814	91.789899
14.340000	50.865335	3.229993	92.896757
14.350000	50.503263	3.190569	93.370470
14.360000	50.865675	3.229993	94.160424
14.370000	50.906168	3.390868	92.739126
14.380000	50.946665	2.827487	92.264266
14.390000	51.067638	2.828441	92.422553
14.400000	50.745890	2.707943	91.632763
14.410000	50.625595	2.266013	90.683208
14.420000	50.464808	2.145198	89.575534
14.430000	50.384499	2.064124	89.733982
14.440000	50.142889	1.944580	88.312031
14.450000	50.142212	1.983368	88.626800
14.460000	50.303341	1.783069	88.154235
14.470000	50.061562	1.622194	88.626472
14.480000	50.061562	2.064124	88.311045
14.490000	50.342985	2.023746	88.151776
14.500000	50.784855	2.266331	88.942716
14.510000	50.946154	2.387147	87.361655
14.520000	50.905491	2.748957	88.152431
14.530000	51.308056	2.830349	86.571047
14.540000	51.228256	3.111404	86.571374
14.550000	50.945984	3.072616	84.041254
14.560000	50.866014	3.233173	84.356516
14.570000	50.543928	3.394367	84.989823
14.580000	50.745720	3.072934	83.410403
14.590000	50.705055	3.113630	83.408927
14.600000	50.785704	3.233173	84.672923
14.610000	50.705227	3.193750	84.515782
14.620000	50.906168	3.072934	82.935052
14.630000	51.429708	3.073252	84.515620
14.640000	51.268412	2.912377	83.250970
14.650000	51.630142	2.832575	86.095860
14.660000	51.750267	2.631004	85.464025
14.670000	51.911226	2.631640	86.253820
14.680000	51.750946	2.429433	86.255131
14.690000	51.952570	2.188756	87.203863
14.700000	52.072863	1.908019	86.729006
14.710000	51.790932	1.625692	85.781746
14.720000	51.430048	1.304895	85.622804
14.730000	51.550852	1.345909	85.148109
14.740000	51.631500	1.305849	84.833014
14.750000	51.631161	1.265153	85.622970
14.760000	51.671656	0.863601	84.042893
14.770000	51.309586	1.103642	87.203701
14.780000	51.108471	0.862329	85.466156
14.790000	51.027651	1.022568	86.098319
14.800000	51.229614	0.861693	86.255129
14.810000	51.309244	1.224458	87.679540
14.820000	51.631161	1.223504	86.412925
14.830000	51.591177	1.746825	84.991299
14.840000	51.349569	1.303941	85.465009
14.850000	51.067806	1.264517	85.306723
14.860000	51.188612	1.586586	85.623625
14.870000	51.148115	1.465135	83.566887
14.880000	51.148287	1.264835	85.464845
14.890000	51.148457	1.748097	83.568524
14.900000	51.550852	1.507102	81.986975
14.910000	51.228935	1.506466	83.409585
14.920000	51.550512	1.586586	82.934072
14.930000	51.510359	1.587858	83.724682
14.940000	51.831764	1.789111	83.250642
14.950000	51.952570	1.909927	82.933908
14.960000	51.952398	2.431977	81.827051
14.970000	51.912245	2.190664	82.933579
14.980000	52.072693	2.111180	82.142476
14.990000	52.153173	2.230724	82.460032
