BioWare Version 5.4.9.0 Export
Device:	ISO Leg Press (NEW) 9281CA (SN<616902)	ISO Leg Press (NEW) 9281CA (SN<616902)	ISO Leg Press (NEW) 9281CA (SN<616902)
Samples (#):	1500	1500	1500
Rate (Hz):	100.000000	100.000000	100.000000
Contact period start (sample #):	0	0	0
Contact period end (sample #):	1499	1499	1499
Contact period start time (s):	0.000000	0.000000	0.000000
Contact period end time (s):	14.990000	14.990000	14.990000
First sample time (s):	0.000000	0.000000	0.000000
Normalized force (N):	800.000000	800.000000	800.000000
Normalized length (m):	1.000000	1.000000	1.000000
File Information
Date	Oct 13, 2024  11:37:32
Name	
ID	
Classification	
Description	
abs time (s)	Fx	Fy	Fz
	N	N	N
0.000000	49.698519	2.362936	133.629221
0.010000	49.457420	2.001762	132.997060
0.020000	49.496895	1.880628	132.524167
0.030000	49.296463	1.678739	133.155671
0.040000	49.497576	1.758223	134.102604
0.050000	49.175320	1.679057	133.470932
0.060000	49.216494	1.556969	133.943827
0.070000	48.974546	1.597983	135.841625
0.080000	49.497746	1.355716	135.051831
0.090000	48.974546	1.557605	136.000565
0.100000	49.015209	1.758858	134.733131
0.110000	49.296972	1.919416	136.315336
0.120000	49.377451	1.638997	135.524559
0.130000	49.457592	1.758858	135.682684
0.140000	49.618719	1.839932	136.314189
0.150000	49.537901	2.080927	134.890759
0.160000	49.135674	1.879992	135.523906
0.170000	49.256819	2.443374	134.733785
0.180000	48.733446	2.402360	134.575826
0.190000	48.774111	2.402678	134.891254
0.200000	49.055365	2.283453	135.049376
0.210000	49.055365	2.363890	136.312227
0.220000	48.894917	2.605203	136.154267
0.230000	48.814266	2.484069	138.840047
0.240000	48.009985	2.765124	139.470082
0.250000	47.486444	2.523812	142.000198
0.260000	47.326164	2.603295	144.052186
0.270000	47.285671	2.684687	147.684245
0.280000	47.164698	2.763852	150.212727
0.290000	47.125051	2.763852	153.530020
0.300000	47.365810	2.964470	154.950833
0.310000	47.446119	2.481844	155.898090
0.320000	47.486784	2.561645	156.688530
0.330000	47.325996	2.282180	156.531390
0.340000	47.204342	2.243075	156.530245
0.350000	46.882425	2.283135	156.531887
0.360000	46.842102	2.282816	155.900215
0.370000	46.318733	2.282180	155.901204
0.380000	45.715223	2.361982	156.217449
0.390000	45.393475	2.161047	155.584135
0.400000	45.393305	1.718481	156.374911
0.410000	45.594419	1.637725	158.745766
0.420000	46.036631	1.959476	158.900930
0.430000	46.640139	2.202061	159.690890
0.440000	46.841593	2.282498	160.323051
0.450000	46.438856	2.363890	160.322397
0.460000	46.117449	2.403314	161.744682
0.470000	45.393137	2.040867	163.010152
0.480000	44.749472	2.041185	162.063215
0.490000	44.991249	2.081563	161.903621
0.500000	45.392965	2.282816	160.953578
0.510000	45.674898	2.242121	164.114876
0.520000	45.393305	2.523175	166.957641
0.530000	45.151699	2.241485	166.958295
0.540000	44.749641	2.242439	169.327181
0.550000	44.346737	2.121305	171.221862
0.560000	43.541265	1.961066	174.223565
0.570000	42.415405	2.162955	178.647220
0.580000	41.409500	2.161683	187.810446
0.590000	40.564894	2.483116	193.021768
0.600000	39.318060	2.522221	202.816176
0.610000	38.957176	2.762898	214.033684
0.620000	38.272509	2.684687	220.508344
0.630000	38.152216	2.525401	232.830251
0.640000	37.065321	2.686913	242.623350
0.650000	36.381842	2.085061	253.523462
0.660000	35.818657	2.849060	266.161122
0.670000	35.416941	2.768623	276.271447
0.680000	35.658546	2.930770	286.065527
0.690000	35.337309	3.292581	296.175688
0.700000	34.855284	4.015566	308.023563
0.710000	34.172654	4.777656	317.660172
0.720000	33.932574	5.661199	327.926494
0.730000	33.007827	5.940981	338.984899
0.740000	31.560219	6.021101	353.044672
0.750000	30.716292	6.221082	366.313852
0.760000	30.314065	6.101539	380.530587
0.770000	29.952504	6.101221	395.221885
0.780000	29.670403	6.221400	412.756577
0.790000	29.710386	5.218314	429.659944
0.800000	29.147711	4.938532	445.614899
0.810000	29.428794	4.538888	460.149694
0.820000	30.958069	4.701035	474.841468
0.830000	32.043945	5.106403	484.950157
0.840000	32.245057	5.430698	497.430850
0.850000	32.445831	6.236983	507.856109
0.860000	32.406525	6.519310	518.282843
0.870000	32.246245	7.162812	527.602880
0.880000	32.044962	7.405397	536.606854
0.890000	32.327234	7.727466	543.557034
0.900000	32.327744	7.607604	553.036324
0.910000	32.449397	8.091184	559.984556
0.920000	33.254359	8.574446	564.723622
0.930000	34.140987	8.615778	565.986639
0.940000	34.865471	9.018284	570.565292
0.950000	34.584557	9.299658	576.883979
0.960000	32.412297	9.621408	581.625496
0.970000	32.613241	9.421109	582.097741
0.980000	33.860244	9.423017	582.095776
0.990000	35.229070	9.383911	583.990470
1.000000	34.545251	9.383911	582.727126
1.010000	34.102362	9.180750	582.884431
1.020000	32.452622	8.659336	584.621785
1.030000	31.647661	8.017107	584.938521
1.040000	32.251849	8.015199	585.885458
1.050000	32.373501	7.653388	588.098194
1.060000	32.856717	8.134106	591.731577
1.070000	33.098664	7.771977	593.310513
1.080000	31.931970	7.730964	594.414917
1.090000	30.845077	7.810765	595.679733
1.100000	30.160748	7.731918	595.363980
1.110000	30.481985	7.571360	595.520795
1.120000	30.804241	7.692176	598.521329
1.130000	30.924876	7.372333	599.626388
1.140000	30.924367	7.654342	601.996887
1.150000	31.004167	7.453407	602.628722
1.160000	32.412128	7.495057	602.945623
1.170000	32.814354	6.813404	603.260066
1.180000	32.211015	6.732330	604.366434
1.190000	30.923687	6.973961	604.367089
1.200000	30.521461	7.133247	604.998760
1.210000	30.521292	7.134836	605.156557
1.220000	31.326424	7.416846	604.049697
1.230000	32.091060	7.777702	602.153730
1.240000	32.413486	7.937623	601.520721
1.250000	32.172049	7.737324	598.203939
1.260000	32.614261	7.897564	595.359204
1.270000	32.252527	7.776748	595.991367
1.280000	32.131214	8.219314	593.778307
1.290000	32.936346	8.339176	590.461363
1.300000	33.216581	8.059393	590.778067
1.310000	33.095776	7.616509	587.934019
1.320000	33.136611	8.137923	586.197126
1.330000	32.251169	8.055895	583.037324
1.340000	32.613241	8.377645	581.457570
1.350000	32.934649	8.419295	579.087368
1.360000	33.135253	8.460309	576.559042
1.370000	33.135762	8.620866	576.402884
1.380000	33.337384	8.539475	575.612107
1.390000	33.095776	8.097227	572.610721
1.400000	32.812657	7.734144	570.873696
1.410000	32.692362	7.975139	568.662270
1.420000	33.255716	8.136014	564.079006
1.430000	33.698438	8.215180	561.234928
1.440000	33.778577	7.894065	558.865901
1.450000	33.899889	7.693130	559.656025
1.460000	33.336535	7.533845	559.025332
1.470000	33.376181	6.930721	556.813579
1.480000	33.456829	6.730422	554.127296
1.490000	33.577293	6.809269	552.390893
1.500000	33.899040	6.808316	550.968800
1.510000	33.576615	6.406763	547.650847
1.520000	33.455301	6.526942	545.437950
1.530000	33.455811	6.285630	545.439093
1.540000	33.455981	6.123800	543.226524
1.550000	33.616600	6.243980	541.963342
1.560000	33.897853	5.962607	540.066526
1.570000	34.099136	6.406445	538.329825
1.580000	33.898192	6.323781	536.591950
1.590000	33.214882	6.404219	535.170156
1.600000	32.933290	7.006389	536.592601
1.610000	32.933799	7.690904	534.853745
1.620000	33.295532	7.690586	535.329913
1.630000	33.737234	7.771024	538.330479
1.640000	33.778406	8.132516	538.013907
1.650000	33.255378	7.971959	537.856112
1.660000	33.013940	7.971641	540.226805
1.670000	32.812996	8.374147	541.962523
1.680000	32.853321	8.816077	545.596887
1.690000	32.933631	8.534386	544.803821
1.700000	33.094418	8.293391	546.069620
1.710000	34.099984	8.012336	545.753375
1.720000	34.663169	7.612056	544.489378
1.730000	34.542195	7.088416	544.015664
1.740000	33.697080	7.128476	545.596562
1.750000	33.133895	7.049311	549.071823
1.760000	31.766088	6.485929	548.914845
1.770000	31.444679	6.283085	549.230272
1.780000	32.369936	6.001713	552.232637
1.790000	33.336026	6.082150	555.230392
1.800000	33.215562	6.285312	565.184068
1.810000	32.572747	6.446187	577.663123
1.820000	31.688154	7.088734	596.620264
1.830000	32.251849	8.578898	624.739486
1.840000	34.786520	8.984585	661.230501
1.850000	37.159721	9.025917	706.571637
1.860000	36.877620	8.540429	757.289589
1.870000	35.625693	7.333546	808.641956
1.880000	31.720499	9.010970	868.223587
1.890000	17.878925	10.388259	918.026047
1.900000	4.473450	12.539087	973.043770
1.910000	-3.132768	14.688643	1033.111229
1.920000	-6.318403	16.115850	1085.434303
1.930000	-10.104322	17.658782	1130.800140
1.940000	-12.361135	16.721506	1151.512543
1.950000	-11.681391	16.353018	1158.469765
1.960000	-12.772531	16.797174	1168.112930
1.970000	-20.624091	17.125602	1177.598145
1.980000	-32.699368	18.772189	1184.080185
1.990000	-40.707305	20.545317	1188.976883
2.000000	-38.900512	20.471239	1202.724342
2.010000	-29.362284	18.669820	1229.111740
2.020000	-18.536217	16.829612	1253.275452
2.030000	-18.695817	16.474162	1269.855888
2.040000	-29.638782	15.637676	1285.495377
2.050000	-38.612298	16.092645	1297.336716
2.060000	-37.160617	17.830164	1301.272087
2.070000	-28.825670	16.913877	1302.205734
2.080000	-19.327935	13.423901	1302.820839
2.090000	-16.791397	11.370992	1308.024498
2.100000	-24.075359	11.329660	1318.133804
2.110000	-32.325922	11.609443	1327.452995
2.120000	-33.369265	13.056049	1337.875031
2.130000	-25.802860	13.022349	1344.498947
2.140000	-17.954525	11.459697	1348.910294
2.150000	-12.358928	7.852405	1345.891907
2.160000	-10.347627	7.622859	1346.981445
2.170000	-16.944884	7.988485	1350.289696
2.180000	-19.679140	8.473337	1354.224712
2.190000	-15.450501	8.519758	1354.841675
2.200000	-7.318706	8.682859	1355.772694
2.210000	2.583293	6.882393	1358.914974
2.220000	8.378984	7.046130	1364.432419
2.230000	6.405121	10.178430	1371.693729
2.240000	-0.435611	12.145813	1379.745872
2.250000	-1.319185	13.189278	1381.636414
2.260000	5.563740	12.905043	1375.147673
2.270000	15.102309	11.581160	1378.612968
2.280000	21.257015	11.062608	1383.818192
2.290000	17.999051	11.267041	1392.819565
2.300000	11.880424	14.841907	1398.979469
2.310000	11.037005	14.480414	1402.136959
2.320000	18.039715	13.034444	1405.767565
2.330000	26.732146	11.508037	1405.285677
2.340000	30.599563	8.934348	1413.654995
2.350000	28.948976	8.813215	1416.496458
2.360000	22.992327	10.225168	1419.656616
2.370000	19.571366	9.746040	1421.711063
2.380000	24.882484	7.298256	1423.131002
2.390000	31.724065	5.372522	1423.125444
2.400000	34.943402	4.166275	1424.071732
2.410000	32.650339	2.964798	1427.231562
2.420000	29.591280	4.568781	1430.074497
2.430000	28.544542	7.462312	1435.129837
2.440000	30.436738	8.547426	1437.341591
2.450000	34.097437	9.716157	1439.709766
2.460000	35.587067	9.479296	1441.762739
2.470000	33.897344	8.720704	1446.505270
2.480000	30.999923	9.001122	1448.086164
2.490000	31.241190	8.883168	1444.767225
2.500000	31.721518	9.849693	1440.188212
2.510000	33.049170	10.535163	1436.710724
2.520000	32.928366	11.701985	1439.554148
2.530000	29.830341	11.861271	1439.241337
2.540000	26.772131	11.538566	1437.186559
2.550000	28.261250	11.295663	1435.923211
2.560000	32.646266	11.742999	1436.079539
2.570000	35.946253	12.946384	1439.553328
2.580000	37.515512	14.151678	1446.979462
2.590000	35.020147	14.831105	1448.561831
2.600000	32.123574	13.869351	1445.404617
2.610000	31.479232	11.980496	1445.881987
2.620000	30.714254	11.694671	1444.617826
2.630000	31.157314	11.529026	1444.460192
2.640000	32.323668	11.929942	1443.983538
2.650000	33.852433	10.489060	1445.088697
2.660000	35.059453	9.365476	1444.771965
2.670000	36.146855	8.721657	1441.297091
2.680000	37.313890	8.522630	1437.184540
2.690000	35.583671	9.607107	1436.397097
2.700000	33.651660	9.004938	1428.498229
2.710000	35.016920	9.287583	1418.071137
2.720000	36.586181	9.487564	1410.169431
2.730000	37.754742	9.279950	1402.740457
2.740000	36.306285	8.152869	1396.898101
2.750000	33.731291	7.546565	1390.106255
2.760000	31.557504	6.618193	1383.156553
2.770000	32.401941	5.689821	1376.678108
2.780000	33.731291	6.291354	1377.628811
2.790000	35.260227	6.251294	1378.890192
2.800000	33.008336	5.648170	1380.787658
2.810000	30.071440	6.610561	1381.419661
2.820000	29.308500	7.493149	1380.472559
2.830000	32.809771	7.374878	1379.836635
2.840000	36.150591	7.416846	1381.570915
2.850000	36.513512	6.975233	1387.257111
2.860000	36.434900	6.571773	1390.415473
2.870000	34.180633	8.341402	1392.310917
2.880000	33.216581	7.939849	1393.894168
2.890000	36.114171	8.421839	1393.891650
2.900000	37.885734	9.182976	1394.204955
2.910000	38.329471	10.304970	1394.678504
2.920000	37.846598	10.825429	1394.359645
2.930000	37.122962	10.103398	1394.360459
2.940000	37.042314	10.422605	1391.676139
2.950000	38.209687	8.854229	1389.938100
2.960000	40.663199	7.490287	1391.358749
2.970000	38.128697	7.730328	1393.256871
2.980000	36.115530	7.932535	1395.314261
2.990000	35.229240	7.531301	1397.842098
3.000000	36.958270	8.212636	1401.000949
3.010000	38.969060	7.570724	1401.634256
3.020000	41.061861	6.807361	1398.790506
3.030000	43.352207	6.606744	1397.524874
3.040000	40.651485	4.400592	1394.054256
3.050000	38.798086	1.067675	1383.158360
3.060000	38.708267	-1.691365	1371.158117
3.070000	38.665907	-2.169220	1361.210632
3.080000	34.601961	-3.860638	1353.321142
3.090000	27.196686	-4.464397	1340.693581
3.100000	19.671796	-3.620915	1325.222496
3.110000	15.043138	-2.538027	1314.169842
3.120000	13.835610	-2.898248	1311.961849
3.130000	12.227384	-2.817492	1311.807880
3.140000	10.658294	-3.898789	1317.974003
3.150000	7.921832	-4.335949	1320.031559
3.160000	3.699305	-2.366022	1323.985867
3.170000	1.004355	-0.714345	1329.359081
3.180000	1.891494	0.735123	1332.518585
3.190000	1.572294	1.501665	1333.308868
3.200000	-1.808003	1.142081	1332.520542
3.210000	-5.145428	0.135815	1334.890907
3.220000	-7.757521	-0.033647	1335.204865
3.230000	-7.633322	-0.844066	1334.885677
3.240000	-5.056459	-0.088336	1333.773094
3.250000	-2.602438	1.836763	1329.500191
3.260000	-2.762038	1.913066	1327.918312
3.270000	-2.841328	2.831579	1326.173836
3.280000	-5.536108	3.671246	1323.011221
3.290000	-7.590451	4.033374	1319.849262
3.300000	-6.343278	2.990865	1315.105589
3.310000	-6.343278	2.908837	1314.310396
3.320000	-7.832737	3.269376	1315.254227
3.330000	-9.925196	3.269058	1317.465647
3.340000	-10.206449	3.508463	1317.144007
3.350000	-8.998582	4.151646	1315.877068
3.360000	-7.709386	4.872405	1315.083511
3.370000	-6.542014	6.194698	1317.609549
3.380000	-6.701783	7.241023	1320.923086
3.390000	-9.275590	9.447812	1323.291101
3.400000	-9.919423	11.295017	1326.290197
3.410000	-7.828322	11.979850	1329.605371
3.420000	-5.414456	12.100348	1328.338595
3.430000	-3.723713	11.618676	1329.757282
3.440000	-5.333467	10.935432	1331.020461
3.450000	-9.036869	9.889424	1328.179163
3.460000	-12.055263	8.883794	1327.391660
3.470000	-13.262451	7.718879	1329.761535
3.480000	-12.820070	6.352393	1329.919660
3.490000	-12.498833	4.505188	1328.024639
3.500000	-12.500870	3.340591	1328.816727
3.510000	-14.473035	2.053270	1329.768732
3.520000	-16.324227	1.528358	1329.137714
3.530000	-15.438447	0.721437	1327.397392
3.540000	-13.789557	0.402548	1330.086620
3.550000	-15.278167	-0.600538	1330.563110
3.560000	-17.976512	-0.759505	1331.985561
3.570000	-19.949017	0.085886	1336.095762
3.580000	-21.357488	0.688692	1336.256500
3.590000	-20.875462	1.412313	1337.363846
3.600000	-19.949527	1.493068	1337.835106
3.610000	-19.707409	1.817999	1339.730776
3.620000	-21.075216	1.979829	1339.892986
3.630000	-21.677537	1.978875	1336.255514
3.640000	-21.073688	1.977921	1335.623350
3.650000	-19.826345	1.698138	1339.257061
3.660000	-19.744847	1.095968	1339.099758
3.670000	-18.940056	0.775172	1339.254120
3.680000	-20.146904	0.494753	1342.415693
3.690000	-22.682593	0.935411	1346.843449
3.700000	-23.044835	-0.029205	1350.319853
3.710000	-20.629610	-0.273380	1354.900175
3.720000	-19.261123	0.288093	1358.216660
3.730000	-20.548960	-0.194851	1359.797720
3.740000	-21.474726	-0.395150	1360.584736
3.750000	-21.958620	0.491573	1363.271509
3.760000	-21.234986	1.055272	1366.590118
3.770000	-18.941244	1.258752	1372.275822
3.780000	-16.566854	1.540442	1376.857450
3.790000	-16.768645	1.544259	1383.335932
3.800000	-17.734056	1.264794	1388.708172
3.810000	-18.700315	1.504199	1392.027761
3.820000	-18.941753	1.022527	1396.609392
3.830000	-17.695599	0.541491	1400.876080
3.840000	-15.602971	0.459782	1406.089054
3.850000	-14.636880	-0.021255	1414.148720
3.860000	-12.945798	0.620657	1422.679815
3.870000	-12.181670	1.184675	1429.949135
3.880000	-12.584406	1.549984	1433.742601
3.890000	-11.618655	2.276149	1437.376249
3.900000	-9.968917	2.439250	1444.482605
3.910000	-8.923536	2.522232	1451.907492
3.920000	-7.194167	3.045236	1457.595982
3.930000	-5.463439	3.207384	1461.859072
3.940000	-3.934504	2.887859	1471.814680
3.950000	-4.337749	3.532314	1476.397392
3.960000	-3.815398	3.455692	1481.452242
3.970000	-2.770697	4.058498	1486.190847
3.980000	-3.695444	4.821225	1490.298435
3.990000	-2.809833	5.381745	1496.301525
4.000000	-0.877653	5.459002	1503.409519
4.010000	0.653490	4.530630	1509.410976
4.020000	1.578237	3.405456	1516.520647
4.030000	2.544666	1.918472	1522.681864
4.040000	4.315039	1.396741	1530.738913
4.050000	5.280450	1.839306	1533.894987
4.060000	6.850389	3.003586	1535.632370
4.070000	8.620592	3.487484	1538.159874
4.080000	10.390625	3.689691	1537.528700
4.090000	11.477009	4.249257	1538.476446
4.100000	12.685725	4.606615	1538.003231
4.110000	10.995831	4.528085	1535.954668
4.120000	8.782229	5.292084	1534.693611
4.130000	7.897807	5.895526	1536.433277
4.140000	8.421855	6.737418	1540.226257
4.150000	10.193756	8.221540	1547.018330
4.160000	12.286385	8.384960	1550.336391
4.170000	14.258720	8.066071	1552.072140
4.180000	13.735860	7.948754	1554.757603
4.190000	11.522596	8.030145	1553.653202
4.200000	9.913352	8.029828	1549.385036
4.210000	8.424742	8.674601	1545.753941
4.220000	8.626534	8.677463	1538.797535
4.230000	9.994681	8.037460	1536.582512
4.240000	12.248438	7.757359	1530.574406
4.250000	13.979675	6.592126	1523.618883
4.260000	14.059134	6.833439	1514.611298
4.270000	13.575411	6.310435	1507.500202
4.280000	12.771468	6.432205	1499.755306
4.290000	13.173185	7.597438	1499.595388
4.300000	13.937652	8.923865	1501.963791
4.310000	14.019660	9.244343	1502.437504
4.320000	16.232923	8.561418	1502.435049
4.330000	17.158348	8.924500	1505.753174
4.340000	14.583693	9.165177	1505.911293
4.350000	13.737897	9.447822	1506.224592
4.360000	13.416659	8.205332	1504.329414
4.370000	12.894140	6.841390	1502.117174
4.380000	14.102685	5.637051	1501.008514
4.390000	14.948312	4.191717	1496.425253
4.400000	15.954556	4.149431	1492.629990
4.410000	16.638544	4.594223	1491.524275
4.420000	16.396258	4.835536	1489.312197
4.430000	16.074002	6.160055	1481.726896
4.440000	17.924684	7.645130	1480.618893
4.450000	18.971083	7.241670	1480.775545
4.460000	18.126307	7.721751	1478.089260
4.470000	18.489566	9.005574	1479.512527
4.480000	19.012596	9.446868	1481.090642
4.490000	17.362517	9.969555	1479.512525
4.500000	16.597201	10.455679	1477.774977
4.510000	17.281529	10.417209	1480.618399
4.520000	17.804898	9.691680	1482.673337
4.530000	17.966707	9.248795	1479.829752
4.540000	18.611388	7.719844	1476.511960
4.550000	19.052920	5.831944	1473.667227
4.560000	18.529042	4.068676	1470.979799
4.570000	17.724419	4.831720	1470.982251
4.580000	16.838979	5.554387	1472.247720
4.590000	16.678020	5.350908	1471.300951
4.600000	17.725438	5.790929	1474.460127
4.610000	18.731174	5.189396	1476.830823
4.620000	18.006691	5.389695	1480.780612
4.630000	17.403012	5.787113	1480.938408
4.640000	17.724080	5.425621	1480.305754
4.650000	16.958594	6.550158	1479.991309
4.660000	15.872888	7.356125	1478.254087
4.670000	16.356103	7.997082	1476.043478
4.680000	17.041280	9.201739	1474.306093
4.690000	18.330476	10.084328	1474.621359
4.700000	18.331324	10.243295	1469.408118
4.710000	18.576327	12.007200	1461.349651
4.720000	20.670314	13.693210	1460.085101
4.730000	21.036290	15.779184	1454.078568
4.740000	21.040026	18.265119	1449.023227
4.750000	22.169451	18.505478	1443.965163
4.760000	23.459835	17.456609	1443.174719
4.770000	23.785149	16.086305	1445.388270
4.780000	24.632303	13.509438	1448.074327
4.790000	24.675344	10.651833	1447.758904
4.800000	23.267211	9.645249	1448.550985
4.810000	22.945805	8.963278	1451.553678
4.820000	22.181337	9.162305	1447.128926
4.830000	21.539201	10.848316	1446.495621
4.840000	21.377393	11.574481	1443.493967
4.850000	20.127843	11.172611	1440.652017
4.860000	19.964847	12.180149	1438.123363
4.870000	18.674804	13.709737	1435.597327
4.880000	17.305638	14.794215	1434.493248
4.890000	16.297017	16.643645	1433.547293
4.900000	15.932907	17.851801	1431.177254
4.910000	15.207236	17.974842	1424.700774
4.920000	14.602879	19.021168	1417.751064
4.930000	13.556309	18.900988	1411.273769
4.940000	12.669681	18.822459	1407.958225
4.950000	11.422677	17.859433	1403.376271
4.960000	11.542971	17.701419	1401.956110
4.970000	11.665133	16.091394	1397.849017
4.980000	10.136877	14.403475	1390.898824
4.990000	8.365316	11.269268	1387.265280
5.000000	6.475328	9.140372	1385.056204
5.010000	5.107182	8.213590	1381.737270
5.020000	5.510767	7.690904	1380.945353
5.030000	8.247060	8.291483	1382.995054
5.040000	9.453908	7.369789	1382.836771
5.050000	9.011697	6.924679	1379.516528
5.060000	7.562732	7.605060	1378.094403
5.070000	5.269498	7.364065	1376.672285
5.080000	4.142960	7.565636	1374.618754
5.090000	4.746130	8.328999	1372.087974
5.100000	5.148525	8.810671	1369.716628
5.110000	4.505031	9.611867	1367.504059
5.120000	3.941338	9.212541	1362.288794
5.130000	2.894089	9.494232	1359.288616
5.140000	1.686730	9.137510	1357.550963
5.150000	0.276562	8.700032	1353.128764
5.160000	0.356192	8.943571	1348.550079
5.170000	0.556965	8.103905	1346.812698
5.180000	0.716905	7.544658	1343.967637
5.190000	0.233691	6.984456	1343.496702
5.200000	-0.690547	6.420120	1339.387154
5.210000	-0.368290	6.259562	1339.861524
5.220000	-0.449280	6.461770	1338.914421
5.230000	-1.575479	6.743461	1337.019077
5.240000	-1.614445	7.785017	1336.860465
5.250000	-1.895358	7.338634	1333.385366
5.260000	-2.660505	7.256924	1331.965432
5.270000	-2.539361	5.888848	1328.802821
5.280000	-1.131060	4.599301	1329.277028
5.290000	-1.252543	3.953573	1327.696455
5.300000	-1.614785	3.713532	1329.750088
5.310000	-0.770347	3.872499	1328.801353
5.320000	0.638803	4.433973	1331.011084
5.330000	1.241803	5.281590	1335.591237
5.340000	2.488806	5.606838	1345.543635
5.350000	2.930508	5.533079	1354.547235
5.360000	2.688221	5.495882	1363.394897
5.370000	3.009290	5.218961	1370.188052
5.380000	3.895070	5.505423	1373.504536
5.390000	5.144620	5.707947	1379.030646
5.400000	6.593076	7.400319	1381.555369
5.410000	7.639475	8.164953	1385.505980
5.420000	8.566090	10.416891	1392.297236
5.430000	9.290573	12.066977	1395.141805
5.440000	9.693647	12.267594	1397.037906
5.450000	10.136877	11.746180	1400.829349
5.460000	9.130633	10.583173	1400.040048
5.470000	9.090648	10.665518	1402.567713
5.480000	9.211112	11.148780	1406.045430
5.490000	10.820866	11.993217	1407.937665
5.500000	11.462832	12.434829	1409.517746
5.510000	11.181409	13.078649	1411.256765
5.520000	11.745103	12.273000	1411.413416
5.530000	13.073605	12.029142	1415.994230
5.540000	12.831997	11.666696	1419.311041
5.550000	12.751858	11.706756	1421.520995
5.560000	13.596635	12.753400	1426.575617
5.570000	14.159649	13.076423	1428.943856
5.580000	14.440732	13.560639	1433.525812
5.590000	15.245525	13.078967	1437.791362
5.600000	15.688414	12.355981	1441.109152
5.610000	15.488828	12.433239	1444.583697
5.620000	16.976420	13.280220	1452.955688
5.630000	16.452712	12.799820	1461.489396
5.640000	16.814104	13.202644	1465.437227
5.650000	19.107506	12.684410	1471.441302
5.660000	19.187137	11.194883	1472.390201
5.670000	20.677276	10.390188	1476.653562
5.680000	21.965113	9.866866	1474.283423
5.690000	23.211945	9.666884	1477.444341
5.700000	22.647743	9.064397	1478.233157
5.710000	22.887991	8.297536	1480.762463
5.720000	23.410851	7.212740	1481.393315
5.730000	24.697669	5.805877	1481.078709
5.740000	24.857610	5.322297	1481.237484
5.750000	25.419605	4.879730	1480.131773
5.760000	25.539731	5.763908	1481.869650
5.770000	25.900784	6.685603	1482.184914
5.780000	25.015343	7.325288	1479.972833
5.790000	24.894878	7.604116	1480.131609
5.800000	26.224738	7.966245	1482.184583
5.810000	27.269948	8.209466	1483.606805
5.820000	27.349918	8.734696	1484.871462
5.830000	26.906519	9.739053	1486.453666
5.840000	25.096500	9.536847	1485.348995
5.850000	24.332542	9.495197	1485.508425
5.860000	24.896407	8.370660	1485.508588
5.870000	25.218832	6.722482	1484.718142
5.880000	24.818304	6.398824	1484.243937
5.890000	24.133636	6.800057	1484.086466
5.900000	21.718751	7.004491	1487.247282
5.910000	19.102072	7.166956	1489.145404
5.920000	17.973837	6.004904	1485.352588
5.930000	18.980421	5.480628	1485.984098
5.940000	20.269276	5.801743	1485.508913
5.950000	21.475955	5.722576	1480.928430
5.960000	21.474937	6.927552	1480.137492
5.970000	20.548492	8.378292	1480.614145
5.980000	17.568555	9.344498	1477.615111
5.990000	16.361027	8.901933	1476.036502
6.000000	17.367272	7.937953	1476.984907
6.010000	16.280548	6.166415	1477.303770
6.020000	16.321212	4.598357	1475.566876
6.030000	17.890811	4.921062	1471.141735
6.040000	18.172743	5.723848	1465.768353
6.050000	17.167177	7.171091	1466.243865
6.060000	16.122476	7.169183	1462.608189
6.070000	16.404917	6.327927	1461.346154
6.080000	16.003370	6.124129	1460.397582
6.090000	16.729551	6.441428	1462.135459
6.100000	18.420122	7.443559	1463.081414
6.110000	19.305734	8.569050	1461.184598
6.120000	17.977233	9.777524	1460.870477
6.130000	16.326306	10.582219	1464.188596
6.140000	14.072718	11.063572	1463.874967
6.150000	13.468190	10.381919	1466.089499
6.160000	13.749443	9.418894	1472.251698
6.170000	12.944142	9.056129	1476.835941
6.180000	12.783183	8.694954	1481.418715
6.190000	11.173089	7.891532	1484.265574
6.200000	10.327803	6.362898	1489.482304
6.210000	9.200415	4.153883	1491.699232
6.220000	6.624231	2.185863	1490.757263
6.230000	4.974323	1.622163	1489.654161
6.240000	5.014987	2.387116	1488.709848
6.250000	3.968419	2.868788	1489.501928
6.260000	2.879996	3.916068	1493.138914
6.270000	3.241898	4.278832	1495.034849
6.280000	4.369286	3.518332	1496.298033
6.290000	5.697108	2.756877	1498.509291
6.300000	6.703013	2.637969	1502.141531
6.310000	7.386832	3.440757	1503.560057
6.320000	7.911220	5.449790	1503.559561
6.330000	9.281743	6.492300	1503.874170
6.340000	10.288328	6.855700	1501.186911
6.350000	10.691742	6.172139	1498.026583
6.360000	9.485234	5.083846	1494.239168
6.370000	6.548506	5.081619	1490.450171
6.380000	5.420779	4.517601	1487.451635
6.390000	6.828231	4.483584	1486.182497
6.400000	8.758543	4.724261	1489.341190
6.410000	9.844419	4.965575	1490.446909
6.420000	10.084837	5.005952	1492.342516
6.430000	9.883215	4.723307	1491.867558
6.440000	8.434420	4.158971	1493.764799
6.450000	8.232967	3.876962	1493.289127
6.460000	8.956940	4.239727	1492.341763
6.470000	9.721408	4.282331	1489.655148
6.480000	9.641438	3.879824	1486.812214
6.490000	9.359336	3.436941	1484.129263
6.500000	7.308390	2.715545	1481.127882
6.510000	5.739300	2.593776	1479.076374
6.520000	5.055142	2.313675	1477.024706
6.530000	5.135621	2.753379	1473.549606
6.540000	5.941092	2.952724	1470.861525
6.550000	6.181851	2.954632	1468.966183
6.560000	6.343488	3.435350	1470.070747
6.570000	6.423798	4.117958	1466.121122
6.580000	5.297428	4.159289	1464.542021
6.590000	4.130226	5.966116	1463.119410
6.600000	4.129716	7.372662	1460.592880
6.610000	4.773550	6.769857	1458.222025
6.620000	5.016176	6.406774	1460.433777
6.630000	4.614119	6.325382	1459.330357
6.640000	4.010610	5.842120	1452.380161
6.650000	3.808817	6.885266	1448.430981
6.660000	3.727829	8.415490	1451.589712
6.670000	0.750268	9.819810	1451.592720
6.680000	1.234672	10.100546	1447.799900
6.690000	3.369833	10.500509	1447.322922
6.700000	3.331716	9.933311	1449.063313
6.710000	1.400214	10.292577	1447.011646
6.720000	0.435143	9.125754	1440.218100
6.730000	-0.411671	8.159230	1438.320633
6.740000	-2.786232	8.717523	1437.534924
6.750000	-2.223897	8.677781	1441.483244
6.760000	0.872770	7.955751	1445.273218
6.770000	0.269261	7.592349	1445.116566
6.780000	-1.782704	7.108134	1445.911270
6.790000	-4.197250	7.669607	1447.177881
6.800000	-6.208211	8.713389	1445.441376
6.810000	-6.650932	10.200373	1443.075752
6.820000	-7.417098	11.648251	1439.126770
6.830000	-7.980112	13.259231	1438.652241
6.840000	-8.503142	13.904640	1439.283585
6.850000	-9.267779	14.027046	1439.127594
6.860000	-10.114255	14.309690	1433.757317
6.870000	-11.322800	13.950424	1427.912018
6.880000	-12.047453	13.955195	1429.808342
6.890000	-12.933403	14.157402	1433.284580
6.900000	-12.852245	13.833425	1429.334625
6.910000	-14.259868	12.904099	1421.751671
6.920000	-15.344724	11.777653	1419.854366
6.930000	-16.832825	9.484702	1420.487671
6.940000	-18.401575	7.755451	1420.488987
6.950000	-18.319737	7.309386	1416.223763
6.960000	-19.245162	6.946305	1410.852734
6.970000	-20.894562	6.426162	1410.535835
6.980000	-21.176493	6.506600	1414.328915
6.990000	-21.579738	6.629641	1412.274464
7.000000	-21.297807	7.230857	1410.697227
7.010000	-21.821856	8.398634	1408.644089
7.020000	-22.949412	8.881261	1408.642452
7.030000	-23.231346	8.923865	1407.380413
7.040000	-23.713881	8.727700	1407.538864
7.050000	-23.794868	9.773707	1406.272900
7.060000	-24.517654	9.693270	1408.961636
7.070000	-25.002058	9.295216	1408.647354
7.080000	-24.881933	9.536847	1406.119850
7.090000	-25.605398	9.858598	1404.383442
7.100000	-26.691951	10.501781	1404.700012
7.110000	-27.697687	10.340905	1404.069157
7.120000	-28.221735	9.177898	1401.384838
7.130000	-26.813263	8.614834	1396.010475
7.140000	-25.887498	8.213601	1392.217724
7.150000	-25.887838	7.650219	1388.583523
7.160000	-26.410698	7.527495	1391.270458
7.170000	-27.375769	8.290540	1390.953560
7.180000	-27.818320	8.167498	1389.848827
7.190000	-26.248720	7.682328	1390.953655
7.200000	-23.835024	8.166862	1393.005165
7.210000	-21.702241	7.885489	1399.954540
7.220000	-20.535545	7.322425	1397.109646
7.230000	-20.095035	7.205109	1396.635937
7.240000	-21.021649	7.771353	1397.428345
7.250000	-22.350997	7.979602	1403.908421
7.260000	-23.721352	8.505468	1408.176907
7.270000	-23.118352	9.952711	1412.128174
7.280000	-21.267840	9.552112	1415.446133
7.290000	-20.464067	8.708312	1416.869068
7.300000	-20.384945	8.508648	1419.083546
7.310000	-20.908485	7.783119	1417.030243
7.320000	-21.271405	7.061088	1422.242393
7.330000	-21.594341	7.620971	1423.352684
7.340000	-20.830214	6.893534	1417.982738
7.350000	-17.771834	6.690055	1416.875122
7.360000	-15.720208	6.486894	1416.401081
7.370000	-17.851974	5.641503	1416.563454
7.380000	-19.662501	5.842120	1414.195705
7.390000	-20.425949	7.443241	1411.985977
7.400000	-22.156168	7.601572	1403.932362
7.410000	-21.874066	8.241258	1395.560375
7.420000	-20.546584	9.526034	1386.870888
7.430000	-22.236137	10.167945	1384.188202
7.440000	-25.657268	11.092820	1383.085602
7.450000	-27.186032	12.579167	1383.404293
7.460000	-25.936992	14.186013	1383.560127
7.470000	-24.931087	14.870210	1384.507221
7.480000	-24.167638	15.034266	1383.245087
7.490000	-24.530898	15.438681	1381.822144
7.500000	-23.565148	14.797087	1381.345654
7.510000	-24.851456	15.274943	1383.241756
7.520000	-25.938009	15.838961	1381.978794
7.530000	-23.201549	14.875934	1380.713650
7.540000	-20.263803	14.073466	1376.129570
7.550000	-20.143339	13.227757	1370.283783
7.560000	-20.988625	12.262505	1367.440849
7.570000	-21.792058	12.138827	1368.072361
7.580000	-22.314240	11.737593	1367.600449
7.590000	-21.789851	11.254013	1362.702240
7.600000	-20.018630	11.934713	1360.804283
7.610000	-18.530189	11.857455	1362.384529
7.620000	-18.410065	11.459082	1365.385094
7.630000	-18.973758	11.942344	1365.385746
7.640000	-19.174702	12.584892	1361.749424
7.650000	-19.860388	14.070286	1359.695461
7.660000	-20.182984	13.751079	1361.909180
7.670000	-19.660463	12.668828	1362.697990
7.680000	-18.252841	12.470437	1362.382729
7.690000	-18.453785	12.994394	1361.275379
7.700000	-19.621497	13.555232	1363.645092
7.710000	-20.103863	13.478611	1360.642727
7.720000	-19.100504	12.798866	1355.586407
7.730000	-17.330641	13.366700	1347.051548
7.740000	-17.453143	14.092547	1339.782223
7.750000	-18.702862	15.504182	1330.776440
7.760000	-19.872613	17.077964	1322.717258
7.770000	-19.713521	17.729098	1318.136120
7.780000	-19.392963	18.453990	1313.239063
7.790000	-20.357695	19.775965	1314.030170
7.800000	-20.719597	19.771514	1314.663372
7.810000	-21.443570	19.003699	1316.563625
7.820000	-22.811208	18.677177	1315.773998
7.830000	-23.614811	18.109978	1317.038971
7.840000	-23.693762	17.462343	1319.725750
7.850000	-23.170732	17.461707	1320.672359
7.860000	-22.608056	16.941883	1317.984440
7.870000	-22.649909	16.137507	1312.770153
7.880000	-22.930992	16.017328	1309.294571
7.890000	-24.902648	15.494006	1304.870575
7.900000	-25.709308	14.894063	1300.448112
7.910000	-25.105799	14.334496	1297.288773
7.920000	-23.578221	15.301020	1295.548443
7.930000	-23.899460	15.663149	1297.919136
7.940000	-25.669662	16.465300	1297.920273
7.950000	-26.795522	16.224941	1298.236198
7.960000	-27.479001	15.624362	1298.079708
7.970000	-27.760933	15.104220	1300.290638
7.980000	-27.198258	14.866405	1305.978580
7.990000	-26.232167	15.509588	1310.242649
8.000000	-25.346387	17.316733	1317.033577
8.010000	-26.593900	17.476018	1321.932430
8.020000	-28.687038	16.673550	1324.145988
8.030000	-29.291566	16.072653	1326.358395
8.040000	-29.050638	15.753445	1328.410980
8.050000	-28.770574	15.233940	1329.203781
8.060000	-28.813275	14.593300	1322.409420
8.070000	-28.131664	15.080379	1315.141830
8.080000	-29.461694	15.765848	1311.823879
8.090000	-31.474524	15.966784	1306.452946
8.100000	-32.441462	16.168355	1299.503136
8.110000	-31.797968	15.769028	1294.288200
8.120000	-29.946607	15.571272	1299.659946
8.130000	-29.262278	15.651392	1302.501575
8.140000	-29.865618	15.648531	1304.398987
8.150000	-30.025557	15.727378	1307.716942
8.160000	-30.104507	15.082286	1311.506817
8.170000	-29.942021	14.716978	1314.193100
8.180000	-29.417973	14.997397	1318.772434
8.190000	-28.814464	14.915369	1317.350315
8.200000	-28.855127	14.513181	1318.455868
8.210000	-28.291604	15.196425	1320.507858
8.220000	-28.090830	15.077198	1325.091717
8.230000	-27.124230	15.278451	1330.776115
8.240000	-26.802313	15.075608	1332.357334
8.250000	-25.756763	15.356664	1332.672600
8.260000	-24.872850	15.880303	1331.088432
8.270000	-24.712232	16.242115	1333.770241
8.280000	-23.947594	16.038634	1338.665493
8.290000	-21.170637	16.034183	1336.921574
8.300000	-16.582983	15.590343	1334.544178
8.310000	-13.967833	16.473568	1336.594374
8.320000	-11.393857	16.713291	1336.589302
8.330000	-9.302077	16.551143	1336.111502
8.340000	-7.050187	15.946747	1338.005152
8.350000	-5.159350	14.855592	1340.211185
8.360000	-2.583506	12.918728	1346.530140
8.370000	1.600563	10.582219	1353.951597
8.380000	6.908795	7.330694	1356.791262
8.390000	12.256332	4.041972	1361.054852
8.400000	16.479538	2.838588	1368.006622
8.410000	18.852571	3.241411	1373.848492
8.420000	20.060099	3.763461	1384.432232
8.430000	20.462665	4.043880	1393.436647
8.440000	22.314875	4.685156	1400.543922
8.450000	25.897134	5.490804	1407.020241
8.460000	28.714755	7.177769	1413.177536
8.470000	30.607461	8.102008	1420.916542
8.480000	31.733998	8.305169	1424.705208
8.490000	30.767740	8.028248	1430.394180
8.500000	29.599857	7.667709	1435.606501
8.510000	30.404649	7.065859	1439.556129
8.520000	31.007819	6.663034	1447.140553
8.530000	33.101467	5.938777	1451.721853
8.540000	34.227666	5.816053	1455.512215
8.550000	35.233911	5.531818	1454.879072
8.560000	36.360451	4.728395	1454.717354
8.570000	35.957543	3.844535	1454.560375
8.580000	34.911654	3.121232	1453.454332
8.590000	35.756942	2.276795	1450.767231
8.600000	37.690141	2.272979	1446.974094
8.610000	39.221281	2.267890	1444.445116
8.620000	40.630772	1.905763	1438.124958
8.630000	42.804899	1.582103	1431.486982
8.640000	44.657955	1.259081	1427.375961
8.650000	44.498188	1.174826	1417.263644
8.660000	45.343472	0.690928	1406.044960
8.670000	47.798344	0.571067	1398.458840
8.680000	51.139166	1.496259	1392.769373
8.690000	53.996090	1.456517	1389.131637
8.700000	56.732553	0.896317	1388.337102
8.710000	58.222692	1.416776	1390.862421
8.720000	56.210712	1.857752	1389.760205
8.730000	53.998129	2.823004	1382.808044
8.740000	53.677910	4.831402	1377.908862
8.750000	55.489796	6.119040	1380.909425
8.760000	56.294758	7.971652	1382.961093
8.770000	57.020260	9.057083	1382.012360
8.780000	57.019918	9.460543	1379.640848
8.790000	54.727026	10.182893	1380.905173
8.800000	52.394148	9.939672	1381.064272
8.810000	50.664949	9.097143	1378.697012
8.820000	50.142937	8.452687	1378.067137
8.830000	49.901329	6.684967	1376.802814
8.840000	48.251251	5.680927	1374.594167
8.850000	47.246704	5.677747	1372.857275
8.860000	46.120337	4.387563	1366.853426
8.870000	45.196098	2.939050	1362.589412
8.880000	43.264088	2.694556	1356.743788
8.890000	41.411707	1.811332	1354.691466
8.900000	39.237242	1.448885	1356.115222
8.910000	37.305229	1.287056	1352.482165
8.920000	35.976730	1.288964	1349.483721
8.930000	34.929991	1.568747	1351.536209
8.940000	33.319896	1.368129	1354.382250
8.950000	29.415892	1.969663	1348.383079
8.960000	26.599628	2.770859	1340.010761
8.970000	24.104095	4.018439	1335.273689
8.980000	22.654620	5.507330	1334.167156
8.990000	21.326288	5.951805	1328.163957
9.000000	20.239394	6.636638	1324.690985
9.010000	18.469701	7.599346	1324.376375
9.020000	14.928277	8.041594	1325.801766
9.030000	13.319201	8.122032	1325.012622
9.040000	13.681273	9.566412	1320.115407
9.050000	13.884424	9.888481	1317.270181
9.060000	11.752659	9.524444	1313.640229
9.070000	8.935038	8.881896	1310.008644
9.080000	7.043691	7.918553	1307.639587
9.090000	5.916473	7.393641	1306.376240
9.100000	5.112021	5.865643	1303.850820
9.110000	5.354137	4.696911	1299.427154
9.120000	5.676733	3.687783	1298.163646
9.130000	5.074752	3.404820	1297.373359
9.140000	2.056697	3.280825	1293.426184
9.150000	0.284796	4.003173	1288.847826
9.160000	-1.688557	4.487390	1282.843260
9.170000	-2.736485	4.329376	1281.898609
9.180000	-2.615851	4.451464	1277.948980
9.190000	-2.775621	6.219185	1276.211924
9.200000	-3.580752	6.298668	1271.314216
9.210000	-4.465345	6.458589	1267.050914
9.220000	-5.229812	7.221953	1264.206672
9.230000	-6.033585	7.824440	1263.416386
9.240000	-6.676570	6.858233	1267.209526
9.250000	-8.407976	5.252979	1264.843088
9.260000	-9.333403	4.289953	1261.526274
9.270000	-9.332893	3.202931	1258.524727
9.280000	-9.050961	2.960664	1259.315176
9.290000	-10.138364	3.282732	1260.897873
9.300000	-12.916340	2.317798	1257.268085
9.310000	-14.848181	0.509064	1255.216419
9.320000	-16.821534	-1.659255	1250.164412
9.330000	-19.316219	-4.349624	1246.693401
9.340000	-20.363468	-6.915679	1241.641659
9.350000	-20.526295	-9.562172	1233.584444
9.360000	-20.566449	-11.205580	1230.583384
9.370000	-21.250777	-13.295051	1231.534248
9.380000	-22.377146	-14.382073	1234.537922
9.390000	-24.105496	-15.348915	1231.536209
9.400000	-24.266285	-16.154247	1233.906740
9.410000	-24.709175	-16.593950	1237.541267
9.420000	-25.314212	-15.750151	1242.441097
9.430000	-24.834054	-14.904123	1245.600279
9.440000	-25.557347	-13.540498	1249.392927
9.450000	-27.247581	-13.061370	1250.975136
9.460000	-28.695868	-14.227239	1252.083466
9.470000	-29.218388	-15.272930	1254.612606
9.480000	-29.781233	-15.551124	1255.402399
9.490000	-29.538946	-14.428493	1256.825171
9.500000	-29.055223	-13.584374	1257.457497
9.510000	-29.096565	-14.264437	1257.299213
9.520000	-29.256166	-14.262846	1263.145002
9.530000	-29.455071	-14.906667	1265.513567
9.540000	-29.253279	-15.471004	1263.299692
9.550000	-27.443261	-15.751740	1263.141407
9.560000	-25.513797	-15.588639	1265.826714
9.570000	-24.990937	-14.945456	1271.037985
9.580000	-22.857814	-15.028436	1279.252609
9.590000	-19.557827	-14.545173	1282.882235
9.600000	-15.333093	-14.541677	1290.303848
9.610000	-10.464865	-14.856750	1298.673487
9.620000	-8.372576	-12.766324	1304.991678
9.630000	-7.767708	-10.554763	1312.258440
9.640000	-7.123705	-8.462430	1316.520161
9.650000	-5.310121	-5.930710	1316.991091
9.660000	-3.616832	-3.682271	1320.781126
9.670000	-0.556076	-2.437554	1325.832216
9.680000	1.216335	-0.950889	1332.308531
9.690000	0.934403	-0.026649	1337.839323
9.700000	-0.191966	0.294464	1340.525604
9.710000	-0.190269	1.577015	1347.001755
9.720000	0.413410	2.578511	1353.793665
9.730000	2.024183	2.375349	1359.009256
9.740000	5.082223	1.773180	1361.219152
9.750000	6.973400	1.494033	1360.899966
9.760000	5.887864	1.735983	1363.586406
9.770000	5.002593	2.217336	1367.378893
9.780000	5.606442	2.298092	1367.376119
9.790000	7.135716	1.735664	1364.691469
9.800000	8.824761	1.134767	1362.794331
9.810000	10.555997	0.974846	1363.107951
9.820000	11.039042	1.776042	1366.109506
9.830000	9.951470	1.335384	1364.056359
9.840000	9.065180	1.977931	1363.899061
9.850000	8.944376	2.540041	1361.529510
9.860000	9.547546	2.858611	1362.002899
9.870000	10.835891	2.938096	1362.950651
9.880000	11.640005	3.621974	1364.845179
9.890000	12.043929	4.302674	1366.900282
9.900000	11.481424	5.184625	1365.479466
9.910000	10.676122	4.542715	1366.584692
9.920000	10.555318	3.460145	1366.902081
9.930000	11.079367	2.093658	1364.217760
9.940000	11.763695	1.046697	1357.740784
9.950000	11.601548	0.243274	1352.213854
9.960000	11.400944	0.081445	1343.682497
9.970000	11.521408	0.161882	1332.623632
9.980000	12.003944	-0.121081	1317.299980
9.990000	13.049155	-0.243804	1294.393600
10.000000	14.900007	-0.284182	1266.747671
10.010000	17.715760	-0.244440	1233.730120
10.020000	21.096396	1.040654	1188.389044
10.030000	27.376659	2.850025	1131.196570
10.040000	34.219939	6.665567	1080.638073
10.050000	37.561439	8.996987	1032.609868
10.060000	35.992349	10.243613	993.274801
10.070000	33.778915	11.412026	953.464330
10.080000	33.860075	13.422014	916.818944
10.090000	36.116379	14.626035	876.375687
10.100000	38.450276	13.621995	838.627206
10.110000	44.807625	12.820481	799.924602
10.120000	47.945803	11.335087	766.911788
10.130000	42.796153	10.564728	738.008790
10.140000	36.841031	10.033137	713.527695
10.150000	30.923687	8.584941	689.051532
10.160000	28.868327	7.375832	664.416208
10.170000	30.034511	7.413029	639.938409
10.180000	32.208637	7.531618	611.195657
10.190000	33.013599	7.771024	581.663483
10.200000	33.174559	6.969827	552.291576
10.210000	31.404356	6.772072	521.967140
10.220000	27.218418	7.771977	494.643940
10.230000	24.966359	8.049216	466.691998
10.240000	23.757134	8.285441	439.211151
10.250000	24.801326	8.443772	407.776930
10.260000	26.972395	7.917906	381.558287
10.270000	28.219060	6.587663	355.493992
10.280000	28.218210	6.059253	336.383633
10.290000	27.734656	5.774382	316.323395
10.300000	29.423701	5.048535	292.153460
10.310000	31.956503	4.925811	270.987850
10.320000	35.817638	4.120162	249.661322
10.330000	36.219185	2.751768	227.232702
10.340000	34.851547	0.940171	207.174103
10.350000	34.851547	-0.146533	184.426777
10.360000	36.984673	-1.230374	163.254272
10.370000	38.836884	-1.433854	149.193186
10.380000	41.936266	-1.393794	135.130133
10.390000	44.953302	-1.676439	125.331631
10.400000	48.373243	-1.555623	120.592386
10.410000	52.154917	-1.191269	118.221367
10.420000	52.355690	-0.388800	114.271097
10.430000	49.741390	0.214324	112.217636
10.440000	48.413568	1.017428	112.851599
10.450000	48.937107	0.096688	111.428659
10.460000	50.989752	-0.265440	112.377884
10.470000	52.640339	-1.353416	114.118212
10.480000	53.849226	-2.479544	116.648991
10.490000	55.457960	-3.005410	114.120180
10.500000	56.060621	-3.165649	112.855524
10.510000	54.410032	-2.406102	111.278238
10.520000	53.605581	-2.085942	108.276043
10.530000	55.336308	-3.411414	106.537191
10.540000	58.111567	-4.090841	104.325119
10.550000	59.156948	-3.688017	101.479734
10.560000	57.787273	-3.368492	97.528643
10.570000	55.413221	-2.803520	94.841219
10.580000	54.809713	-2.439484	92.312740
10.590000	55.895418	-2.476045	89.784258
10.600000	56.860998	-2.232824	88.359846
10.610000	57.867073	-1.747972	89.152259
10.620000	57.625467	-1.827774	88.679038
10.630000	56.860828	-1.545765	88.047695
10.640000	57.182236	-0.659360	88.522717
10.650000	57.987028	-0.257490	89.314149
10.660000	59.033768	-0.858705	90.264687
10.670000	59.235390	-1.659584	92.163137
10.680000	59.677769	-1.902487	92.795462
10.690000	59.920567	-2.063680	92.637831
10.700000	60.202328	-1.699962	94.694241
10.710000	60.362438	-1.818551	95.959383
10.720000	60.362608	-2.381933	96.593674
10.730000	60.765343	-3.066130	96.749992
10.740000	60.805838	-3.792295	95.959875
10.750000	60.726377	-4.394783	95.327711
10.760000	60.323982	-4.315299	95.170246
10.770000	60.524246	-3.996093	97.067715
10.780000	60.605064	-4.356949	97.069189
10.790000	60.524755	-4.920967	96.593838
10.800000	60.686052	-5.766994	100.073511
10.810000	60.566097	-5.686874	103.236118
10.820000	60.162853	-5.365124	105.133259
10.830000	60.364475	-5.324746	107.346642
10.840000	60.203346	-5.081842	107.507551
10.850000	60.203176	-5.123174	108.456118
10.860000	60.766531	-5.243354	109.246897
10.870000	60.485109	-5.204884	110.353588
10.880000	60.526114	-4.842756	110.828772
10.890000	59.881939	-4.560429	110.987225
10.900000	59.398386	-3.715674	111.778488
10.910000	59.558834	-3.194260	111.936939
10.920000	60.162512	-2.752012	112.094898
10.930000	60.002403	-2.511335	112.568939
10.940000	59.439560	-1.947953	113.362167
10.950000	59.117132	-1.385207	115.100367
10.960000	59.318247	-1.183000	113.362495
10.970000	59.639652	-0.660632	115.575716
10.980000	59.076639	-0.580831	116.524940
10.990000	58.674072	-1.103198	118.106985
11.000000	59.278261	-1.062503	119.529268
11.010000	59.801291	-1.064093	119.372288
11.020000	58.915850	-1.184590	120.478979
11.030000	58.312002	-1.586779	119.056206
11.040000	57.949421	-1.786760	119.215147
11.050000	57.989746	-1.948589	119.216624
11.060000	58.714565	-2.672210	118.109768
11.070000	58.755062	-3.275652	118.425686
11.080000	58.313189	-3.516965	118.584299
11.090000	57.790329	-3.556071	119.691156
11.100000	57.145987	-3.557661	118.427159
11.110000	56.824408	-3.636190	117.636548
11.120000	57.750175	-3.957623	118.427323
11.130000	58.353683	-3.797702	117.477772
11.140000	58.193235	-3.798020	117.953118
11.150000	57.830824	-3.476905	118.901852
11.160000	57.468245	-3.193942	116.689123
11.170000	57.106001	-2.872509	117.163655
11.180000	57.347948	-2.149842	117.162837
11.190000	57.468582	-2.671574	117.164313
11.200000	57.951458	-2.510063	117.004058
11.210000	57.871149	-2.269704	118.270841
11.220000	57.347948	-1.988013	118.269528
11.230000	57.186481	-1.304452	119.851408
11.240000	57.146326	-1.102562	117.163003
11.250000	57.266790	-1.505705	117.637204
11.260000	57.267300	-1.586143	114.001208
11.270000	57.307455	-1.547355	114.791329
11.280000	56.985706	-2.230598	114.633044
11.290000	56.662601	-1.828728	113.843904
11.300000	56.461489	-1.870060	112.260881
11.310000	55.776991	-1.788986	111.312477
11.320000	55.535383	-2.232188	111.310345
11.330000	55.617222	-2.635967	108.782357
11.340000	55.576727	-2.915749	107.518030
11.350000	54.852755	-2.916385	107.989944
11.360000	54.731781	-2.916067	107.516068
11.370000	54.006786	-2.796206	105.304484
11.380000	53.926819	-2.957718	106.568152
11.390000	54.209089	-2.798114	105.301863
11.400000	54.530836	-2.715768	104.038359
11.410000	55.416616	-2.514197	104.985617
11.420000	55.617899	-2.152386	104.354609
11.430000	55.053528	-1.389660	105.302356
11.440000	55.213976	-1.307950	105.302028
11.450000	55.857132	-0.745840	107.198674
11.460000	55.857470	-0.545223	107.515084
11.470000	55.818163	-0.625025	106.883082
11.480000	55.777330	-0.384348	106.724799
11.490000	55.616032	0.017841	106.724639
11.500000	55.495058	0.540845	104.194679
11.510000	55.294285	0.379969	102.613947
11.520000	54.892569	0.098914	102.771908
11.530000	54.611654	-0.102657	101.823008
11.540000	54.692814	-0.343970	101.033052
11.550000	54.652149	-0.504527	99.609134
11.560000	54.168425	-0.625025	98.659743
11.570000	54.006958	-0.784628	100.399909
11.580000	54.047451	-0.665721	100.083009
11.590000	54.650961	-1.109559	99.608153
11.600000	55.093851	-1.551489	99.292071
11.610000	55.213976	-1.752106	99.924395
11.620000	55.013031	-1.469461	100.398927
11.630000	54.932554	-1.429083	98.659415
11.640000	54.731781	-1.267572	97.394111
11.650000	54.651979	-1.909801	97.393786
11.660000	55.135534	-1.870060	95.972158
11.670000	55.779709	-2.232188	96.761293
11.680000	55.135534	-2.231552	96.288239
11.690000	54.974747	-1.869105	97.395583
11.700000	54.330402	-1.708548	95.973468
11.710000	54.249754	-1.426539	98.975823
11.720000	54.571840	-1.388387	98.502603
11.730000	54.813618	-1.589323	98.500638
11.740000	54.612335	-1.348010	97.393947
11.750000	54.933912	-0.945503	98.817541
11.760000	54.732800	-0.303910	97.869297
11.770000	54.450697	-0.182458	97.078524
11.780000	54.168596	-0.143353	96.603826
11.790000	54.531345	-0.022855	96.445540
11.800000	54.169783	-0.223790	96.604157
11.810000	54.491529	-0.264804	96.921382
11.820000	53.888021	-0.545541	98.502278
11.830000	53.686909	-0.505163	99.925216
11.840000	53.525782	-0.224108	98.343991
11.850000	54.330742	-0.505481	98.344976
11.860000	54.331253	-1.149619	98.185050
11.870000	54.532875	-1.631927	97.552398
11.880000	54.210108	-1.793120	96.605136
11.890000	53.847868	-1.632881	98.027092
11.900000	53.807713	-1.471369	97.078684
11.910000	53.606600	-1.794392	97.394931
11.920000	53.606600	-1.834770	97.869626
11.930000	54.089474	-2.034751	98.026598
11.940000	54.250772	-2.236005	98.027255
11.950000	54.090153	-1.993737	97.552398
11.960000	54.371237	-2.033161	98.502112
11.970000	54.612844	-1.509839	98.500802
11.980000	54.934591	-1.549581	97.078359
11.990000	55.015579	-1.429401	98.185214
12.000000	55.015240	-1.671351	96.920563
12.010000	55.136044	-1.549899	97.078029
12.020000	55.578255	-0.945821	97.236152
12.030000	54.894606	-0.744250	98.343500
12.040000	54.934931	-0.905125	97.869461
12.050000	55.095720	-0.945185	97.869624
12.060000	55.337496	-0.743614	97.710684
12.070000	56.222939	-1.226558	95.338683
12.080000	55.821051	-1.105425	95.023095
12.090000	55.659754	-1.225604	95.180237
12.100000	55.900850	-0.983973	93.282604
12.110000	55.819862	-1.346738	93.124480
12.120000	55.699228	-1.306678	94.390280
12.130000	55.900511	-1.829364	95.179252
12.140000	56.181932	-2.350777	95.338191
12.150000	55.899492	-2.311036	97.235497
12.160000	56.341534	-2.229962	95.337539
12.170000	55.737854	-1.949225	94.547421
12.180000	55.295815	-2.511653	92.965376
12.190000	55.859169	-2.671574	91.700233
12.200000	56.302397	-2.712906	89.645629
12.210000	56.342722	-2.391155	89.644155
12.220000	55.457281	-2.109464	87.588401
12.230000	54.893587	-1.545765	86.323914
12.240000	55.055223	-1.666262	86.640160
12.250000	55.176029	-1.425903	84.901795
12.260000	54.975256	-1.467235	84.426609
12.270000	54.813787	-1.506977	86.166447
12.280000	55.015240	-1.667216	84.268161
12.290000	54.613012	-1.106061	83.635180
12.300000	54.210279	-0.865066	82.687921
12.310000	54.089643	-0.624389	83.003017
12.320000	54.532026	-0.906398	79.366042
12.330000	55.297171	-1.267890	81.260560
12.340000	55.981159	-1.349282	81.260560
12.350000	55.940836	-1.469779	80.154525
12.360000	55.497606	-1.349282	80.627415
12.370000	55.176197	-1.229738	79.364239
12.380000	55.095888	-1.389660	80.312810
12.390000	55.136385	-1.872604	79.681630
12.400000	54.292116	-2.114235	78.416326
12.410000	53.607616	-2.276382	78.732407
12.420000	53.164728	-1.473278	77.784164
12.430000	53.285530	-1.232283	78.890528
12.440000	53.164047	-0.950274	76.992897
12.450000	53.526459	-0.469556	77.625384
12.460000	54.049999	-0.348740	77.782362
12.470000	54.170124	-0.308998	78.255909
12.480000	54.250263	-0.387846	77.940484
12.490000	54.088966	-0.146533	79.679665
12.500000	54.209938	-0.267984	82.208965
12.510000	53.726213	0.054402	81.261214
12.520000	54.249414	-0.146851	82.367906
12.530000	54.330233	-0.105201	83.158191
12.540000	54.330912	0.096370	81.893867
12.550000	54.009165	0.337683	83.158519
12.560000	53.083738	0.738600	82.683496
12.570000	53.486475	0.900747	81.263673
12.580000	53.526119	1.061940	80.312809
12.590000	53.043583	0.981185	80.628725
12.600000	53.043924	0.861005	78.416161
12.610000	53.083399	0.860051	80.629709
12.620000	53.123554	0.740190	79.839096
12.630000	53.203693	0.778978	81.104076
12.640000	53.083229	0.497923	82.052153
12.650000	53.645737	0.498241	82.051991
12.660000	54.410711	0.497605	83.316314
12.670000	54.410711	0.376789	83.000887
12.680000	54.048302	0.336093	83.474598
12.690000	53.767048	0.417167	82.842929
12.700000	53.204035	0.698540	82.368727
12.710000	53.244358	0.858461	83.790845
12.720000	53.727573	0.497287	82.210277
12.730000	53.486135	0.176172	81.420976
12.740000	53.245207	-0.266076	81.263508
12.750000	53.567123	-0.185957	82.526848
12.760000	53.164557	-0.467011	84.582602
12.770000	53.244698	-0.306136	84.583258
12.780000	53.606939	-0.064505	83.475909
12.790000	55.497437	0.338001	85.056479
12.800000	54.974575	0.177126	84.106759
12.810000	53.405317	0.256292	84.741216
12.820000	53.928007	0.217186	86.323585
12.830000	54.733139	0.618738	86.322438
12.840000	53.726723	0.577724	85.216567
12.850000	55.417297	0.459135	85.056806
12.860000	54.813957	0.379333	85.057952
12.870000	54.009844	0.098596	84.267669
12.880000	54.251451	0.097006	83.633540
12.890000	53.929026	0.297941	83.317624
12.900000	54.050678	-0.345878	82.052645
12.910000	54.130478	-0.505163	82.210767
12.920000	53.727741	-0.466693	81.895669
12.930000	54.049828	-0.385938	82.053136
12.940000	54.009335	-0.586237	83.318443
12.950000	53.606258	-0.465421	85.690275
12.960000	53.969009	-0.345878	85.531992
12.970000	54.612335	0.018159	86.322602
12.980000	54.813787	0.379015	86.322439
12.990000	54.532194	0.540527	86.006687
13.000000	54.451546	0.901701	85.216566
13.010000	54.411053	0.741462	84.267668
13.020000	54.492039	0.661978	83.634687
13.030000	54.371065	0.701720	82.212571
13.040000	54.049660	0.621600	80.947266
13.050000	54.210617	0.301440	81.420813
13.060000	54.169954	-0.019993	79.997712
13.070000	54.371407	0.018159	81.737220
13.080000	53.928347	0.341182	79.681304
13.090000	53.646246	0.019431	80.155342
13.100000	53.847528	0.259790	79.206774
13.110000	54.531685	0.502693	80.788486
13.120000	54.451036	0.620646	79.681305
13.130000	54.129799	0.460407	80.154852
13.140000	54.329895	0.702038	78.257875
13.150000	54.330063	0.782158	79.996402
13.160000	54.330063	0.460725	79.838770
13.170000	54.370388	0.379333	79.838771
13.180000	54.329895	0.018477	78.732077
13.190000	54.611994	-0.383712	81.418354
13.200000	54.612503	-0.626615	79.047176
13.210000	54.411221	-0.465421	81.103420
13.220000	54.331421	-0.505163	79.997057
13.230000	53.888531	-0.667311	78.732242
13.240000	54.049828	-0.667311	79.205625
13.250000	54.090153	-0.185639	79.364077
13.260000	54.170633	-0.346196	78.732079
13.270000	54.089983	-0.465739	78.414685
13.280000	53.970028	-0.426634	78.415506
13.290000	53.848886	-0.627569	79.364568
13.300000	53.888531	-0.868564	80.154852
13.310000	54.049490	-1.110195	80.787339
13.320000	54.209938	-0.868564	81.262689
13.330000	54.451376	-0.628205	82.684479
13.340000	54.531855	-0.869836	83.475418
13.350000	54.571671	-0.788762	84.265537
13.360000	54.894096	-0.708642	84.107415
13.370000	55.014900	-0.466057	84.423661
13.380000	54.853941	-0.304864	84.899011
13.390000	54.813618	-0.384984	83.002361
13.400000	54.894606	-0.103929	82.370366
13.410000	54.492210	-0.184049	84.109055
13.420000	54.814466	-0.545859	83.159829
13.430000	54.371746	-0.505799	81.579261
13.440000	54.129799	-0.505799	81.420156
13.450000	54.049660	-0.625661	82.684153
13.460000	54.693153	-0.745840	83.634032
13.470000	54.652491	-0.745522	82.843422
13.480000	54.934250	-0.706416	82.526850
13.490000	54.893757	-0.905761	83.791009
13.500000	54.933231	-0.905443	82.369219
13.510000	54.973728	-0.907988	82.209785
13.520000	55.215166	-1.348010	82.526520
13.530000	54.852583	-0.344606	83.317132
13.540000	55.014561	-1.028485	83.317951
13.550000	54.973557	-0.705780	84.423826
13.560000	54.692984	-0.625343	83.316806
13.570000	54.893587	-1.188406	81.894032
13.580000	55.054886	-0.786218	82.052155
13.590000	54.893587	-0.826914	81.418517
13.600000	54.773293	-0.423771	81.260724
13.610000	55.255999	-1.025941	81.260890
13.620000	55.698210	-0.703872	79.996237
13.630000	54.733309	-0.626297	79.996399
13.640000	54.250092	-1.228466	79.680158
13.650000	54.892738	-0.584329	79.046521
13.660000	53.767387	-0.425998	80.312153
13.670000	54.249924	-1.029121	81.102930
13.680000	55.054714	-0.425362	79.521214
13.690000	54.491701	-1.389660	80.628235
13.700000	54.450867	-1.312084	80.471585
13.710000	54.410881	-0.427906	81.577133
13.720000	54.289740	-1.070135	81.736073
13.730000	54.691965	-1.312084	83.790190
13.740000	55.094530	-0.669219	84.108070
13.750000	54.813787	-0.630113	84.738922
13.760000	54.934082	-0.910532	85.055168
13.770000	54.491871	-0.789080	83.474111
13.780000	54.049660	-0.508661	83.159009
13.790000	54.372255	-0.668583	81.577461
13.800000	54.733986	-0.828186	81.103912
13.810000	54.170973	-1.070135	80.313138
13.820000	54.252640	-1.996282	80.314283
13.830000	53.970537	-2.280198	81.102602
13.840000	53.447340	-3.041335	81.578441
13.850000	52.923290	-2.599405	82.210603
13.860000	53.647604	-1.878328	81.735253
13.870000	53.445641	-1.074588	80.152719
13.880000	54.411053	-0.430450	76.673701
13.890000	54.410372	0.011162	75.722511
13.900000	53.846510	0.495696	74.775578
13.910000	52.195751	0.858779	78.571335
13.920000	52.195751	0.660706	78.414521
13.930000	52.277418	0.338319	80.312644
13.940000	53.001562	0.698540	80.787340
13.950000	53.083061	0.700766	82.052318
13.960000	52.318764	0.861641	83.160155
13.970000	52.680834	1.463175	81.579425
13.980000	53.364992	2.106040	83.158519
13.990000	54.088966	2.225901	81.419336
14.000000	54.491020	1.665064	80.469129
14.010000	54.329895	0.941443	81.102108
14.020000	54.451036	0.177126	79.996237
14.030000	54.089134	-0.707688	80.471423
14.040000	53.485117	-1.630655	81.735744
14.050000	53.082380	-2.074175	81.735745
14.060000	52.760466	-2.516105	81.262690
14.070000	52.760294	-2.676026	82.210602
14.080000	53.444622	-2.836902	80.945297
14.090000	53.445301	-3.159925	80.627742
14.100000	53.366011	-3.078851	78.573463
14.110000	53.567123	-2.475091	78.573298
14.120000	53.728081	-2.635967	78.099588
14.130000	53.768406	-2.435031	78.889871
14.140000	54.291946	-2.353958	79.679173
14.150000	54.453074	-2.675072	80.945135
14.160000	54.654528	-2.997459	80.313791
14.170000	54.291607	-2.794934	82.053466
14.180000	54.412411	-2.835312	80.944972
14.190000	54.733648	-2.995551	81.736074
14.200000	54.693323	-2.593681	80.629709
14.210000	54.934082	-2.272248	81.103747
14.220000	54.773293	-2.273202	80.628563
14.230000	54.611994	-1.710456	79.363749
14.240000	54.611485	-1.590277	79.047176
14.250000	54.692135	-1.147075	79.205462
14.260000	54.289230	-0.583693	77.623256
14.270000	54.047623	-0.462877	77.150527
14.280000	54.450188	-0.624071	76.675668
14.290000	54.852755	-0.824370	77.623256
14.300000	54.772444	-0.703554	75.726608
14.310000	54.731609	-0.582739	76.201466
14.320000	54.330402	-0.583375	77.623749
14.330000	54.330233	0.059491	77.307177
14.340000	54.852755	0.302076	77.782689
14.350000	54.772104	-0.019357	75.884893
14.360000	55.054377	0.020067	76.675178
14.370000	54.934082	-0.180868	76.042524
14.380000	55.054205	-0.301366	76.517056
14.390000	54.852755	-0.462877	74.144728
14.400000	54.853264	-0.341426	73.986115
14.410000	55.013882	-0.624071	73.352479
14.420000	54.973728	-1.066637	73.194851
14.430000	54.813448	-1.026577	72.403909
14.440000	54.773464	-1.509839	72.246607
14.450000	54.532026	-1.268844	72.404565
14.460000	54.290928	-1.068545	71.614118
14.470000	53.969009	-1.510793	71.612480
14.480000	54.170973	-1.632245	70.665548
14.490000	54.171652	-2.436304	71.614281
14.500000	54.573877	-2.839446	71.613463
14.510000	54.212147	-3.160243	70.980973
14.520000	54.171822	-3.241316	73.353954
14.530000	54.171822	-3.402192	72.247101
14.540000	53.889719	-3.321754	72.877948
14.550000	54.292456	-3.683247	73.827828
14.560000	54.131157	-3.562749	73.669870
14.570000	54.010183	-3.321754	72.405222
14.580000	54.010183	-2.920202	74.301376
14.590000	54.049828	-2.638193	73.985951
14.600000	54.170124	-2.476364	73.828485
14.610000	54.170464	-2.235368	73.352969
14.620000	54.331253	-1.953041	74.459500
14.630000	54.612844	-1.550853	72.720646
14.640000	54.411390	-1.268208	72.720482
14.650000	54.170464	-0.905761	72.879916
14.660000	53.686739	-0.501665	72.089798
14.670000	53.283663	-0.179914	73.352809
14.680000	53.524931	-0.058145	71.772568
14.690000	53.363974	0.022293	72.405058
14.700000	53.403618	0.303984	73.195012
14.710000	53.403790	0.385694	73.985626
14.720000	53.121347	0.706490	72.879423
14.730000	53.805164	1.269872	73.669870
14.740000	54.006449	1.430747	75.566519
14.750000	54.529139	1.872359	74.934687
14.760000	54.971861	1.872359	76.042195
14.770000	54.972198	1.912737	78.254762
14.780000	55.173311	1.791922	77.464641
14.790000	54.972198	1.751226	78.888398
14.800000	54.691116	1.790332	79.677862
14.810000	54.570143	1.670152	77.781379
14.820000	54.570482	1.227268	77.939173
14.830000	54.732290	1.227268	76.516073
14.840000	54.370218	0.944623	77.623583
14.850000	54.048641	0.581859	77.149544
14.860000	53.686739	0.138656	77.940157
14.870000	53.364653	-0.062915	77.939499
14.880000	53.727064	0.137702	76.674520
14.890000	53.606768	-0.626933	77.465297
14.900000	53.607109	-1.028803	78.572153
14.910000	53.325855	-1.150255	79.047338
14.920000	53.446659	-1.150255	79.205135
14.930000	53.527817	-1.591549	78.730275
14.940000	53.246395	-1.551489	79.679173
14.950000	53.326876	-1.751788	79.047668
14.960000	53.568481	-2.274792	79.047995
14.970000	54.011372	-2.112963	79.047668
14.980000	54.575405	-2.514515	79.204479
14.990000	54.494078	-2.794934	78.888725
